File: Dynamic XAS/Dynamic XAS Energy analyzed data/ESweep_0_5 Hz/Same Eo/Normalized Spectra/Ir0_5Hz_ReaddMean_VPhsCorrect_24_16_mV_.csv.nor
# XDI/1.0 Athena/0.9.26
# Element.edge:                  K
# Element.symbol:                Co
# Column.1:                      energy eV
# Column.2:                      norm
# Column.3:                      nbkg
# Column.4:                      flat
# Column.5:                      fbkg
# Column.6:                      nder
# Column.7:                      nsec
# Athena.e0:                     7721.54
# Athena.eshift:                 0
# Athena.rbkg:                   1.0
# Athena.importance:             1
# Athena.standard:               None
# Athena.bkg_kweight:            3
# Athena.edge_step:              1.19373
# Athena.fixed_step:             no
# Athena.pre_edge_range:         -82.964 -19.904
# Athena.pre_edge_line:          0.130155 + 0.000197712 * E
# Athena.normalization_range:    45 125.256
# Athena.post_edge_polynomial:   15.6177 - 0.00165345 * E + 0 * E^2 + 0 * E^3
# Athena.spline_range_energy:    0.000 125.180
# Athena.clamps:                 0 24
# Athena.spline_range_k:         0.000 5.732
# Athena.kweight:                2
# Athena.window:                 hanning
# Athena.phase_correction:       no
# Athena.k_range:                .4 5.35
# Athena.dk:                     .5
# Athena.r_range:                .4 5.1
# Athena.dr:                     .5
# Athena.window:                 hanning
# Athena.plot_multiplier:        1
# Athena.y_offset:               0.2
# ///
#------------------------
#   e         norm        nbkg        flat        fbkg        nder        nsec
  7600.07      -0.213261      -0.0132606  -0.213261      -0.213261       0.0120373  -0.000497102
  7610.64      -0.0859784   0.114022      -0.0859784  -0.0859784   0.00678092  -0.000371719
  7624.56      -0.0472026   0.152797      -0.0472026  -0.0472026   0.00293427  -0.00020644
  7637.2      -0.00804717   0.191953      -0.00804717  -0.00804717   0.00129807  -0.000128341
  7649.7      -0.0145651   0.185435      -0.0145651  -0.0145651  -0.000292621   9.39714e-05
  7662.2      -0.0153624   0.184638      -0.0153624  -0.0153624   0.00364727   1.85754e-05
  7674.73       0.0767405   0.276741       0.0767405   0.0767405   0.000172395  -0.000278608
  7687.33      -0.0110298   0.18897      -0.0110298  -0.0110298  -0.00335472   7.72107e-06
  7700.01      -0.00805673   0.191943      -0.00805673  -0.00805673   0.000367561   0.000825512
  7700.39      -0.00623051   0.193769      -0.00623051  -0.00623051   0.00742399   0.00659984
  7700.72      -0.00279312   0.197207      -0.00279312  -0.00279312   0.00504685  -0.0174928
  7701.07      -0.00278351   0.197216      -0.00278351  -0.00278351  -0.00452361  -0.00525254
  7701.43      -0.0060275   0.193972      -0.0060275  -0.0060275   0.00129129   0.0121151
  7701.8      -0.00184475   0.198155      -0.00184475  -0.00184475   0.00428408  -0.00930083
  7702.15      -0.00293867   0.197061      -0.00293867  -0.00293867  -0.00541461  -0.0128897
  7702.52      -0.00572703   0.194273      -0.00572703  -0.00572703  -0.00495786   0.00613738
  7702.88      -0.00652817   0.193472      -0.00652817  -0.00652817  -0.00097115   0.00654772
  7703.24      -0.00643305   0.193567      -0.00643305  -0.00643305  -0.000197669   0.00465944
  7703.6      -0.00667069   0.193329      -0.00667069  -0.00667069   0.0023883   0.00969303
  7703.96      -0.00471586   0.195284      -0.00471586  -0.00471586   0.00677162   0.000838535
  7704.32      -0.00176126   0.198239      -0.00176126  -0.00176126   0.00299624  -0.0111438
  7704.69      -0.00254059   0.197459      -0.00254059  -0.00254059  -0.00131881  -0.00821292
  7705.02      -0.00267783   0.197322      -0.00267783  -0.00267783  -0.00271174   0.000970997
  7705.38      -0.00442254   0.195577      -0.00442254  -0.00442254  -0.000644934   0.0249177
  7705.75      -0.00314799   0.196852      -0.00314799  -0.00314799   0.0154533   0.0340333
  7706.11       0.00687381   0.206874       0.00687381   0.00687381   0.0242334   0.0173151
  7706.47       0.0143485   0.214349       0.0143485   0.0143485   0.0279548   0.0123971
  7706.83       0.0269733   0.226973       0.0269733   0.0269733   0.033147   0.000878488
  7707.2       0.0383801   0.23838       0.0383801   0.0383801   0.0285917  -0.0227371
  7707.56       0.0477309   0.247731       0.0477309   0.0477309   0.0166398  -0.0338502
  7707.91       0.0503441   0.250344       0.0503441   0.0503441   0.00425341  -0.015705
  7708.28       0.0508061   0.250806       0.0508061   0.0508061   0.00528506  -0.00436896
  7708.65       0.0542075   0.254207       0.0542075   0.0542075   0.0010597  -0.0197122
  7708.98       0.05155   0.25155       0.05155   0.05155  -0.00855288   0.0022414
  7709.29       0.0486994   0.248699       0.0486994   0.0486994   0.00250316   0.0260814
  7709.6       0.0530869   0.253087       0.0530869   0.0530869   0.00746112  -0.0152388
  7709.9       0.0532731   0.253273       0.0532731   0.0532731  -0.00683821  -0.0369964
  7710.21       0.0488814   0.248881       0.0488814   0.0488814  -0.0152916  -0.00223607
  7710.51       0.0439299   0.24393       0.0439299   0.0439299  -0.00820445   0.0204609
  7710.82       0.0438603   0.24386       0.0438603   0.0438603  -0.00276959   0.0230922
  7711.11       0.0422848   0.242285       0.0422848   0.0422848   0.00551232   0.00892442
  7711.42       0.0471291   0.247129       0.0471291   0.0471291   0.00252259  -0.0205652
  7711.73       0.0438412   0.243841       0.0438412   0.0438412  -0.0071764  -0.00409917
  7712.03       0.04273   0.24273       0.04273   0.04273   9.79808e-06   0.00137971
  7712.33       0.0438471   0.243847       0.0438471   0.0438471  -0.00633754  -0.000216673
  7712.64       0.0388324   0.238832       0.0388324   0.0388324  -0.000123456   0.034662
  7712.95       0.0437706   0.243771       0.0437706   0.0437706   0.0151529   0.0406022
  7713.23       0.0477878   0.247788       0.0477878   0.0477878   0.0238724   0.0497908
  7713.54       0.057736   0.257736       0.057736   0.057736   0.0442806   0.061374
  7713.85       0.0751532   0.275153       0.0751531   0.0751531   0.0618015   0.054072
  7714.16       0.0962383   0.296238       0.0962383   0.0962383   0.0779674   0.0103099
  7714.47       0.123259       0.323259       0.123259       0.123259       0.0681627  -0.0537073
  7714.78       0.138227       0.338227       0.138227       0.138227       0.0448837  -0.0467576
  7715.08       0.150503       0.350503       0.150503       0.150503       0.0397809   0.00844437
  7715.39       0.162453       0.362453       0.162453       0.162453       0.0500263   0.00738821
  7715.67       0.180169       0.380169       0.180169       0.180169       0.0441621  -0.0573114
  7715.97       0.188332       0.388332       0.188332       0.188332       0.0164418  -0.0431982
  7716.14       0.187847       0.387847       0.187847       0.187847       0.0239885   0.0726659
  7716.26       0.195121       0.395121       0.195121       0.195121       0.0370063   0.043006
  7716.37       0.196359       0.396359       0.196359       0.196359       0.0338799   0.176376
  7716.5       0.203388       0.403388       0.203388       0.203388       0.0800419   0.162723
  7716.62       0.216609       0.416609       0.216609       0.216609       0.0750489  -0.147833
  7716.73       0.220949       0.420949       0.220949       0.220949       0.045449  -0.185996
  7716.87       0.227835       0.427835       0.227835       0.227835       0.0291079  -0.0515916
  7716.99       0.228372       0.428372       0.228372       0.228372       0.0322931   0.0589515
  7717.1       0.235392       0.435392       0.235392       0.235392       0.0429025   0.00899302
  7717.23       0.238883       0.438883       0.238883       0.238883       0.0344964   0.144952
  7717.35       0.243982       0.443981       0.243981       0.243981       0.0789955   0.125896
  7717.46       0.256973       0.456973       0.256973       0.256973       0.0633266  -0.0993902
  7717.59       0.259307       0.459307       0.259307       0.259307       0.054943   0.0818624
  7717.71       0.270599       0.470598       0.270599       0.270599       0.0836285   0.119768
  7717.84       0.280214       0.480214       0.280214       0.280214       0.084885   0.100824
  7717.96       0.29182       0.49182       0.29182       0.29182       0.108834       0.0407865
  7718.07       0.305463       0.505463       0.305463       0.305463       0.0943475  -0.116676
  7718.21       0.315029       0.515029       0.315029       0.315029       0.080132  -0.0851525
  7718.33       0.325817       0.525817       0.325817       0.325817       0.0727188   0.040998
  7718.44       0.332118       0.532118       0.332118       0.332118       0.0897665   0.0553575
  7718.57       0.34781       0.54781       0.34781       0.34781       0.0862814   0.0486629
  7718.69       0.353861       0.553861       0.353861       0.353861       0.10203       0.145506
  7718.81       0.37148       0.57148       0.37148       0.37148       0.120039       0.00581091
  7718.94       0.38303       0.58303       0.38303       0.38303       0.103442       0.0736999
  7719.06       0.397444       0.597444       0.397444       0.397444       0.138537       0.0876468
  7719.17       0.415171       0.615171       0.415171       0.415171       0.123776       0.00250159
  7719.3       0.427522       0.627522       0.427522       0.427522       0.139145       0.173454
  7719.42       0.450236       0.650236       0.450236       0.450236       0.167486       0.0111983
  7719.53       0.467049       0.667049       0.467049       0.467049       0.141788      -0.0552847
  7719.67       0.485116       0.685116       0.485116       0.485116       0.153886      -0.0119605
  7719.79       0.505982       0.705982       0.505982       0.505982       0.138762       0.00968656
  7719.9       0.517725       0.717725       0.517725       0.517725       0.156163       0.302411
  7720.03       0.544398       0.744398       0.544398       0.544398       0.213155       0.202703
  7720.15       0.571653       0.771653       0.571653       0.571653       0.207446      -0.150115
  7720.27       0.592733       0.792733       0.592733       0.592733       0.178178      -0.109961
  7720.4       0.61495       0.81495       0.61495       0.61495       0.180726      -0.078865
  7720.52       0.637734       0.837734       0.637733       0.637733       0.158541      -0.0163396
  7720.65       0.654427       0.854427       0.654427       0.654427       0.176657       0.22936
  7720.77       0.681898       0.881898       0.681898       0.681898       0.215881       0.208689
  7720.88       0.704727       0.904727       0.704727       0.704727       0.225282       0.0384295
  7721.01       0.737542       0.937542       0.737542       0.737542       0.225373      -0.217945
  7721.13       0.761972       0.961972       0.761972       0.761972       0.169924      -0.133981
  7721.25       0.777135       0.977135       0.777135       0.777135       0.194156       0.302927
  7721.38       0.809734        1.00973       0.809734       0.809734       0.244444       0.254139
  7721.5       0.839223        1.03922       0.839161       0.839161       0.258707      -0.0294418
  7721.61       0.870013        2.26522       0.870125        2.06533       0.237584      -0.157883
  7721.74       0.897194        2.24778       0.89751        2.0481       0.220184       0.188696
  7721.86       0.925059        2.23233       0.925558        2.03283       0.284758      -0.0415358
  7721.97       0.962688        2.21778       0.963361        2.01846       0.21063      -0.587758
  7722.1       0.976032        2.20104       0.976906        2.00192       0.142521       0.0383348
  7722.23       0.998603        2.18547       0.999667        1.98654       0.220291       0.331374
  7722.36        1.03199        2.16878        1.03325        1.97005       0.22669      -0.154593
  7722.48        1.05596        2.15362        1.05741        1.95507       0.181179      -0.233326
  7722.59        1.07456        2.13945        1.0762        1.94108       0.171858      -0.221651
  7722.72        1.09806        2.12331        1.0999        1.92515       0.126874      -0.194448
  7722.85        1.10666        2.10842        1.10869        1.91045       0.122663       0.163553
  7722.96        1.12676        2.09487        1.12896        1.89707       0.165146       0.23278
  7723.05        1.14052        2.0837        1.14286        1.88604       0.170383      -0.100492
  7723.21        1.17021        2.06442        1.17281        1.86702       0.13952      -0.139988
  7723.41        1.19005        2.04176        1.19294        1.84465       0.120687      -0.0206267
  7723.6        1.21728        2.01896        1.22048        1.82216       0.131476      -0.0401819
  7723.8        1.24185        1.99649        1.24535        1.8       0.104855      -0.152687
  7724        1.25891        1.97403        1.26272        1.77784       0.0708588  -0.209154
  7724.2        1.27005        1.95212        1.27417        1.75624       0.0216123  -0.154749
  7724.4        1.26747        1.93054        1.27189        1.73497       0.00957827  -0.00209375
  7724.59        1.27382        1.90951        1.27856        1.71424       0.0207873  -0.0747427
  7724.79        1.27564        1.88869        1.28067        1.69373      -0.0197956  -0.129349
  7725.01        1.26559        1.86592        1.27097        1.6713      -0.0330218  -0.0209545
  7725.72        1.24479        1.79431        1.25128        1.60079      -0.0393671  -0.0099537
  7726.51        1.20658        1.72046        1.21428        1.52816      -0.0479424  -0.000895518
  7727.3        1.16909        1.65042        1.17803        1.45935      -0.0407811   0.00580133
  7728.07        1.143        1.58756        1.15312        1.39768      -0.0388981   0.00697796
  7728.83        1.10966        1.52892        1.12096        1.34023      -0.0301188   0.0185829
  7729.59        1.09701        1.47444        1.1095        1.28693      -0.0105221   0.0189007
  7730.35        1.09363        1.42408        1.1073        1.23775      -0.00133309   0.00701391
  7731.15        1.09494        1.37548        1.10983        1.19038       0.000377509   0.00106075
  7731.91        1.09422        1.33251        1.1103        1.14859       0.000318491  -0.00568611
  7732.68        1.09542        1.29275        1.1127        1.11002      -0.00833362  -0.00566759
  7733.44        1.08146        1.25672        1.09991        1.07518      -0.00835859   0.00412364
  7734.21        1.08259        1.22347        1.10225        1.04312      -0.00200383  -0.00241251
  7734.98        1.07838        1.19379        1.09922        1.01463      -0.0120618  -0.00863975
  7735.77        1.06377        1.16583        1.08584       0.987908      -0.0154905   0.0068973
  7736.54        1.05417        1.14198        1.07743       0.965236      -0.00128131   0.00727095
  7737.31        1.0618        1.12063        1.08625       0.945088      -0.00433684  -0.0126709
  7738.08        1.0475        1.10188        1.07314       0.927531      -0.0207818  -0.00903306
  7738.84        1.0299        1.08562        1.05673       0.91245      -0.0182026   0.00689404
  7739.62        1.0195        1.07151        1.04753       0.899538      -0.0101788   0.00228186
  7740.39        1.01418        1.05955        1.04341       0.88878      -0.0146794  -0.00768582
  7741.16       0.996822        1.04959        1.02725       0.880019      -0.0220534  -0.00621928
  7741.95       0.979692        1.04133        1.01135       0.872988      -0.0244063   0.000229442
  7744.45       0.916501        1.02635       0.952032       0.861876      -0.0212983   0.00165576
  7746.97       0.872839        1.02448       0.912272       0.86391      -0.0160994   0.00155557
  7749.45       0.835988        1.03077       0.879274       0.874054      -0.0135189   0.00092771
  7751.94       0.805704        1.04031       0.852838       0.887447      -0.0114924   0.00109838
  7754.45       0.778503        1.04963       0.829545       0.900674      -0.00802477   0.00216272
  7756.95       0.765468        1.058       0.820378       0.912907      -0.000648505   0.00278049
  7759.43       0.775277        1.0655       0.834034       0.924254       0.00580814   0.00166489
  7761.95       0.794497        1.07229       0.857157       0.93495       0.0076726   0.00104041
  7764.47       0.813931        1.07829       0.880501       0.944864       0.0110497   0.000677176
  7766.97       0.849944        1.08348       0.920386       0.953921       0.0110707   8.38968e-05
  7769.46       0.869218        1.08793       0.943532       0.962242       0.0114687   1.67017e-05
  7771.99       0.90754        1.0917       0.98577       0.969932       0.0111545  -0.0012907
  7774.49       0.925281        1.09475        1.00739       0.976855       0.00498167  -0.00181185
  7777       0.932498        1.09713        1.0185       0.983131       0.00207715  -0.000663314
  7780.56       0.937898        1.09941        1.02943       0.990942       0.000952704  -0.000845374
  7784.15       0.939312        1.10046        1.0364       0.997554      -0.00396896  -0.000583572
  7787.69       0.909595        1.10034        1.01218        1.00293      -0.00320875   0.00065176
  7791.28       0.916424        1.09911        1.02458        1.00726       0.000680038   0.000264962
  7794.86       0.91447        1.09685        1.02817        1.01055      -0.00130924  -0.000573986
  7798.44       0.907058        1.09362        1.0263        1.01287      -0.00342626  -0.000297809
  7802.02       0.889962        1.0895        1.01476        1.01429      -0.00343946   1.10428e-05
  7805.61       0.882369        1.08452        1.01275        1.01489      -0.003347   0.000106621
  7809.2       0.865901        1.07879        1.00184        1.01473      -0.00267296   0.000492688
  7812.81       0.863137        1.07234        1.00467        1.01388       0.000197893   3.82428e-05
  7816.38       0.867321        1.06534        1.01439        1.01242      -0.00239849  -0.000539721
  7819.99       0.845904        1.05771       0.99858        1.01039      -0.00368  -4.48405e-05
  7823.6       0.840737        1.0496       0.999012        1.00788      -0.00272242  -0.000105297
  7827.22       0.826224        1.04106       0.99011        1.00495      -0.00444119   6.53759e-05
  7830.81       0.80872        1.03225       0.978175        1.00171      -0.00225112   0.000764455
  7834.44       0.809982        1.0231       0.985057       0.99817       0.00107435  -5.455e-05
  7838.06       0.816505        1.01375       0.997196       0.994439      -0.00264639  -0.000428112
  7841.69       0.79079        1.00426       0.977111       0.990577      -0.00203032   0.000780939
  7845.32       0.801765       0.994716       0.993714       0.986666       0.00302322   0.00139216