File: Dynamic XAS/Dynamic XAS Energy analyzed data/ESweep_0_5 Hz/Same Eo/Normalized Spectra/Ir0_5Hz_ReaddMean_VPhsCorrect_43_-182_mV_.csv.nor
# XDI/1.0 Athena/0.9.26
# Element.edge:                  K
# Element.symbol:                Co
# Column.1:                      energy eV
# Column.2:                      norm
# Column.3:                      nbkg
# Column.4:                      flat
# Column.5:                      fbkg
# Column.6:                      nder
# Column.7:                      nsec
# Athena.e0:                     7721.54
# Athena.eshift:                 0
# Athena.rbkg:                   1.0
# Athena.importance:             1
# Athena.standard:               None
# Athena.bkg_kweight:            3
# Athena.edge_step:              1.19169
# Athena.fixed_step:             no
# Athena.pre_edge_range:         -82.964 -19.904
# Athena.pre_edge_line:          -0.034843 + 0.000219169 * E
# Athena.normalization_range:    45 125.256
# Athena.post_edge_polynomial:   15.5158 - 0.00164042 * E + 0 * E^2 + 0 * E^3
# Athena.spline_range_energy:    0.000 125.180
# Athena.clamps:                 0 24
# Athena.spline_range_k:         0.000 5.732
# Athena.kweight:                2
# Athena.window:                 hanning
# Athena.phase_correction:       no
# Athena.k_range:                .4 5.35
# Athena.dk:                     .5
# Athena.r_range:                .4 5.1
# Athena.dr:                     .5
# Athena.window:                 hanning
# Athena.plot_multiplier:        1
# Athena.y_offset:               0.2
# ///
#------------------------
#   e         norm        nbkg        flat        fbkg        nder        nsec
  7600.07      -0.213556      -0.0135558  -0.213556      -0.213556       0.0123499  -0.000520613
  7610.64      -0.0829681   0.117032      -0.0829681  -0.0829681   0.00684493  -0.000388965
  7624.56      -0.0459303   0.15407      -0.0459303  -0.0459303   0.00282452  -0.000212689
  7637.2      -0.00795162   0.192048      -0.00795162  -0.00795162   0.00119613  -0.000125224
  7649.7      -0.0158562   0.184144      -0.0158562  -0.0158562  -0.00032399   0.000105861
  7662.2      -0.016051   0.183949      -0.016051  -0.016051   0.00384254   2.00116e-05
  7674.73       0.0803379   0.280338       0.0803379   0.0803379   0.000176981  -0.000292578
  7687.33      -0.0116032   0.188397      -0.0116032  -0.0116032  -0.00351053   8.42723e-06
  7700.01      -0.0083978   0.191602      -0.0083978  -0.0083978   0.000389996   0.000927811
  7700.39      -0.00651099   0.193489      -0.00651099  -0.00651099   0.0086039   0.00705362
  7700.72      -0.00229763   0.197702      -0.00229763  -0.00229763   0.00539101  -0.0213828
  7701.07      -0.00282893   0.197171      -0.00282893  -0.00282893  -0.00600052  -0.00643117
  7701.43      -0.006588   0.193412      -0.006588  -0.006588   0.000792724   0.0164392
  7701.8      -0.00225261   0.197747      -0.00225261  -0.00225261   0.00595081  -0.00515326
  7702.15      -0.00229747   0.197703      -0.00229747  -0.00229747  -0.00292278  -0.0162853
  7702.52      -0.00434825   0.195652      -0.00434825  -0.00434825  -0.00572578   0.00104309
  7702.88      -0.00644293   0.193557      -0.00644293  -0.00644293  -0.00216758   0.00840043
  7703.24      -0.00592408   0.194076      -0.00592408  -0.00592408   0.000381338   0.00601805
  7703.6      -0.00616799   0.193832      -0.00616799  -0.00616799   0.00217143   0.0109828
  7703.96      -0.00436282   0.195637      -0.00436282  -0.00436282   0.00827798   0.00320552
  7704.32      -0.000166453   0.199834      -0.000166453  -0.000166453   0.00449543  -0.0158726
  7704.69      -0.00109914   0.198901      -0.00109914  -0.00109914  -0.00324555  -0.0127759
  7705.02      -0.00242211   0.197578      -0.00242211  -0.00242211  -0.00438379   0.00566996
  7705.38      -0.00414149   0.195859      -0.00414149  -0.00414149   0.000689405   0.0296398
  7705.75      -0.00191953   0.19808      -0.00191953  -0.00191953   0.0172237   0.0337644
  7706.11       0.008449   0.208449       0.008449   0.008449   0.0253712   0.0186531
  7706.47       0.0163985   0.216398       0.0163985   0.0163985   0.0306912   0.0099351
  7706.83       0.030516   0.230516       0.030516   0.030516   0.0325145  -0.00788844
  7707.2       0.0399715   0.239971       0.0399715   0.0399715   0.0249721  -0.0222692
  7707.56       0.0486457   0.248646       0.0486457   0.0486457   0.0163471  -0.0280898
  7707.91       0.051725   0.251725       0.051725   0.051725   0.00477555  -0.0183256
  7708.28       0.0520984   0.252098       0.0520984   0.0520984   0.0030977  -0.0103251
  7708.65       0.0539894   0.253989       0.0539894   0.0539894  -0.00277211  -0.0186399
  7708.98       0.0501524   0.250152       0.0501524   0.0501524  -0.0099875   0.00673015
  7709.29       0.0475575   0.247557       0.0475575   0.0475575   0.00156211   0.0281361
  7709.6       0.0511115   0.251112       0.0511115   0.0511115   0.00728807  -0.00661717
  7709.9       0.0520251   0.252025       0.0520251   0.0520251  -0.00249422  -0.0308105
  7710.21       0.0495776   0.249578       0.0495776   0.0495776  -0.0116604  -0.0103793
  7710.51       0.0449006   0.244901       0.0449006   0.0449006  -0.00883597   0.0221213
  7710.82       0.04417   0.24417       0.04417   0.04417   0.00187785   0.0374107
  7711.11       0.046016   0.246016       0.046016   0.046016   0.013386   0.00607529
  7711.42       0.0521079   0.252108       0.0521079   0.0521079   0.0054805  -0.0258987
  7711.73       0.0493975   0.249397       0.0493975   0.0493975  -0.00259353  -0.007656
  7712.03       0.050518   0.250518       0.050518   0.050518   0.000787367  -0.00278504
  7712.33       0.0498762   0.249876       0.0498762   0.0498762  -0.00428684   0.0131114
  7712.64       0.0478816   0.247882       0.0478816   0.0478816   0.00885089   0.0318707
  7712.95       0.0553637   0.255364       0.0553638   0.0553638   0.015473   0.029598
  7713.23       0.0570262   0.257026       0.0570262   0.0570262   0.0263433   0.054751
  7713.54       0.0707746   0.270775       0.0707746   0.0707746   0.0475023   0.0571453
  7713.85       0.0863826   0.286383       0.0863826   0.0863826   0.0616591   0.0525987
  7714.16       0.109188       0.309188       0.109188       0.109188       0.0802713   0.0228459
  7714.47       0.13591       0.33591       0.13591       0.13591       0.0757551  -0.0432492
  7714.78       0.155853       0.355853       0.155853       0.155853       0.0536298  -0.0656107
  7715.08       0.168463       0.368463       0.168463       0.168463       0.0359294  -0.0146421
  7715.39       0.177734       0.377734       0.177734       0.177734       0.0447127   0.0249263
  7715.67       0.194978       0.394978       0.194978       0.194978       0.0507107  -0.0277323
  7715.97       0.207451       0.407451       0.207451       0.207451       0.0284616  -0.0671114
  7716.14       0.20827       0.40827       0.20827       0.20827       0.0193697   0.0508308
  7716.26       0.212932       0.412932       0.212932       0.212932       0.0428467   0.15344
  7716.37       0.218124       0.418124       0.218124       0.218124       0.0546608   0.110454
  7716.5       0.22627       0.42627       0.22627       0.22627       0.0697976   0.044777
  7716.62       0.235783       0.435783       0.235783       0.235783       0.0659894  -0.107213
  7716.73       0.241711       0.441711       0.241711       0.241711       0.0447097  -0.0887409
  7716.87       0.246826       0.446826       0.246826       0.246826       0.0440704  -0.025807
  7716.99       0.252949       0.452949       0.252949       0.252949       0.0381289  -0.0326364
  7717.1       0.255749       0.455749       0.255749       0.255749       0.0364335   0.119118
  7717.23       0.261875       0.461875       0.261875       0.261875       0.0673128   0.273283
  7717.35       0.272509       0.472509       0.272509       0.272509       0.104481      -0.0824582
  7717.46       0.285801       0.485801       0.285801       0.285801       0.0484298  -0.237572
  7717.59       0.284229       0.484229       0.284229       0.284229       0.0469886   0.188665
  7717.71       0.297455       0.497455       0.297455       0.297455       0.0952188   0.147685
  7717.84       0.308034       0.508034       0.308034       0.308034       0.0839098   0.0294948
  7717.96       0.318432       0.518432       0.318432       0.318432       0.102593       0.19423
  7718.07       0.331836       0.531836       0.331836       0.331836       0.128971      -0.040372
  7718.21       0.350159       0.550159       0.350159       0.350159       0.092661  -0.289786
  7718.33       0.355371       0.555372       0.355372       0.355372       0.0553656   0.0466905
  7718.44       0.36317       0.56317       0.36317       0.36317       0.103633       0.270871
  7718.57       0.380762       0.580762       0.380762       0.380762       0.121729      -0.0363415
  7718.69       0.393846       0.593846       0.393846       0.393846       0.0944753  -0.157363
  7718.81       0.40268       0.60268       0.40268       0.40268       0.0852206   0.183474
  7718.94       0.414554       0.614554       0.414554       0.414554       0.139059       0.374777
  7719.06       0.437584       0.637584       0.437584       0.437584       0.17929      -0.0436087
  7719.17       0.456149       0.656149       0.456149       0.456149       0.128942      -0.28054
  7719.3       0.468917       0.668917       0.468917       0.468917       0.111119       0.043368
  7719.42       0.484151       0.684151       0.484151       0.484151       0.139871       0.154817
  7719.53       0.501926       0.701926       0.501926       0.501926       0.147655       0.0357984
  7719.67       0.520474       0.720474       0.520474       0.520474       0.148677       0.0219938
  7719.79       0.539542       0.739542       0.539542       0.539542       0.15322       0.173663
  7719.9       0.556481       0.756481       0.556481       0.556481       0.189488       0.17876
  7720.03       0.586156       0.786156       0.586156       0.586156       0.197195       0.101474
  7720.15       0.606371       0.806371       0.606371       0.606371       0.215161      -0.0604575
  7720.27       0.636288       0.836288       0.636288       0.636288       0.183108      -0.250597
  7720.4       0.650867       0.850867       0.650867       0.650867       0.154266      -0.0797086
  7720.52       0.674701       0.874701       0.674701       0.674701       0.163261       0.105953
  7720.65       0.691518       0.891518       0.691518       0.691518       0.180648       0.231885
  7720.77       0.719863       0.919863       0.719863       0.719863       0.221232       0.108268
  7720.88       0.743065       0.943065       0.743065       0.743065       0.205875      -0.0153002
  7721.01       0.770714       0.970714       0.770714       0.770714       0.217453      -0.0595494
  7721.13       0.798298       0.998298       0.798298       0.798298       0.190749      -0.0973793
  7721.25       0.815158        1.01516       0.815158       0.815158       0.194763       0.161951
  7721.38       0.84621        1.04621       0.84621       0.84621       0.230589       0.209138
  7721.5       0.873728        1.07373       0.873666       0.873666       0.247884      -0.0633544
  7721.61       0.903967        2.24101       0.90408        2.04112       0.215828      -0.129618
  7721.74       0.92639        2.22389       0.926708        2.02421       0.216258       0.213867
  7721.86       0.958032        2.20872       0.958534        2.00922       0.269294      -0.0986282
  7721.97       0.988328        2.19444       0.989005        1.99512       0.193573      -0.596935
  7722.1        1.00488        2.178        1.00576        1.97888       0.124836       0.00374667
  7722.23        1.01979        2.16272        1.02086        1.96379       0.194517       0.303615
  7722.36        1.05428        2.14633        1.05556        1.9476       0.201954      -0.164041
  7722.48        1.07088        2.13144        1.07235        1.93291       0.153015      -0.193887
  7722.59        1.09024        2.11753        1.09189        1.91918       0.156391      -0.20074
  7722.72        1.1092        2.10169        1.11104        1.90354       0.103834      -0.219594
  7722.85        1.11651        2.08707        1.11855        1.88911       0.100834       0.161257
  7722.96        1.13279        2.07377        1.135        1.87598       0.141568       0.202868
  7723.05        1.14553        2.0628        1.14789        1.86516       0.142422      -0.106602
  7723.21        1.16911        2.04388        1.17172        1.84649       0.114384      -0.105383
  7723.41        1.18614        2.02163        1.18905        1.82455       0.105011      -0.0121439
  7723.6        1.21006        1.99925        1.21328        1.80247       0.109648      -0.0449475
  7723.8        1.22934        1.9772        1.23287        1.78073       0.0873015  -0.11401
  7724        1.24472        1.95515        1.24856        1.75899       0.0643863  -0.170278
  7724.2        1.25497        1.93365        1.25911        1.7378       0.0195309  -0.162278
  7724.4        1.25246        1.91248        1.25691        1.71693       0.000124034  -0.028876
  7724.59        1.25502        1.89183        1.25978        1.6966       0.00815378  -0.0390478
  7724.79        1.25566        1.8714        1.26073        1.67647      -0.0152218  -0.093202
  7725.01        1.24868        1.84906        1.2541        1.65447      -0.0306183  -0.0221566
  7725.72        1.22706        1.77879        1.23359        1.58531      -0.035916  -0.00674509
  7726.51        1.19485        1.70633        1.2026        1.51408      -0.0407292   0.00040823
  7727.3        1.16275        1.63763        1.17174        1.44662      -0.0352714   0.00365947
  7728.07        1.13986        1.57599        1.15004        1.38617      -0.035024   0.00450129
  7728.83        1.10924        1.5185        1.12061        1.32987      -0.0283935   0.0159161
  7729.59        1.0965        1.46509        1.10907        1.27765      -0.0107202   0.0156665
  7730.35        1.09291        1.41573        1.10666        1.22948      -0.00453333   0.00455547
  7731.15        1.08946        1.36812        1.10445        1.18311      -0.00364097   0.00306825
  7731.91        1.08724        1.32603        1.10342        1.14221       0.000243939  -0.00273456
  7732.68        1.08983        1.2871        1.10721        1.10448      -0.00783031  -0.00573774
  7733.44        1.07525        1.25184        1.09382        1.07041      -0.00854055   0.00504167
  7734.21        1.07672        1.21931        1.0965        1.03909      -9.1352e-05  -0.00126073
  7734.98        1.07511        1.1903        1.09608        1.01126      -0.0104758  -0.00954846
  7735.77        1.06037        1.16297        1.08258       0.985186      -0.0149965   0.00642881
  7736.54        1.05167        1.13968        1.07508       0.963081      -0.000427535   0.00647032
  7737.31        1.05971        1.11885        1.08432       0.943458      -0.00507103  -0.0129089
  7738.08        1.04387        1.10057        1.06967       0.926381      -0.0202943  -0.00836975
  7738.84        1.02856        1.08473        1.05556       0.911735      -0.0179186   0.00524941
  7739.62        1.01631        1.07101        1.04452       0.899222      -0.0122207   0.00216402
  7740.39        1.00969        1.05941        1.0391       0.888822      -0.0145774  -0.00580565
  7741.16       0.993786        1.04977        1.0244       0.880385      -0.0211904  -0.00642462
  7741.95       0.976549        1.0418        1.0084       0.873648      -0.0246255  -5.26056e-06
  7744.45       0.912744        1.0275       0.948497       0.863257      -0.0212077   0.00176265
  7746.97       0.87015        1.02607       0.909831       0.865749      -0.0157822   0.00181544
  7749.45       0.833817        1.0326       0.877374       0.876154      -0.0121287   0.00110177
  7751.94       0.809919        1.04226       0.857349       0.889688      -0.0103109   0.000921701
  7754.45       0.782242        1.05163       0.833605       0.902996      -0.00751835   0.00203987
  7756.95       0.772222        1.06       0.827476       0.915257      -8.2956e-05   0.00260541
  7759.43       0.781829        1.06746       0.840955       0.926583       0.00544356   0.00146149
  7761.95       0.799429        1.07416       0.862483       0.937214       0.00722156   0.00104848
  7764.47       0.818212        1.08004       0.885199       0.947024       0.0107258   0.00070271
  7766.97       0.853251        1.08506       0.924135       0.955942       0.0107478  -1.06022e-05
  7769.46       0.871886        1.08931       0.946667       0.964094       0.0106728  -7.59532e-06
  7771.99       0.90685        1.09286       0.985571       0.971586       0.0107096  -0.00118736
  7774.49       0.925712        1.09567        1.00834       0.97829       0.00470519  -0.0017926
  7777       0.930423        1.09779        1.01696       0.984329       0.0017287  -0.000590493
  7780.56       0.936213        1.09968        1.02831       0.991781       0.00111854  -0.000810424
  7784.15       0.938423        1.10032        1.03612       0.998016      -0.00406745  -0.000581773
  7787.69       0.907208        1.09979        1.01044        1.00301      -0.00303008   0.000684445
  7791.28       0.916809        1.09815        1.02564        1.00698       0.000814697   0.000166778
  7794.86       0.913048        1.09551        1.02746        1.00992      -0.00183445  -0.000630718
  7798.44       0.903685        1.09194        1.02368        1.01193      -0.00369746  -0.000188822
  7802.02       0.8866        1.08752        1.01218        1.0131      -0.00318509   9.65811e-05
  7805.61       0.880823        1.0823        1.01202        1.0135      -0.0030042   7.47217e-05
  7809.2       0.865003        1.07641        1.0018        1.01321      -0.00264792   0.000439636
  7812.81       0.861771        1.06989        1.00419        1.01232       0.000158984  -1.26497e-05
  7816.38       0.866144        1.06292        1.01414        1.01091      -0.0027387  -0.000503578
  7819.99       0.842094        1.05542       0.995728        1.00906      -0.00345922   5.24524e-05
  7823.6       0.841155        1.04757        1.00042        1.00684      -0.00235979  -0.000142149
  7827.22       0.825035        1.03944       0.989949        1.00436      -0.00448682   3.01129e-05
  7830.81       0.808809        1.03118       0.979327        1.0017      -0.0021427   0.000731372
  7834.44       0.809575        1.02275       0.985748       0.998924       0.000790025  -6.71793e-05
  7838.06       0.814534        1.01431       0.996359       0.996131      -0.00262949  -0.000315458
  7841.69       0.790506        1.00591       0.977996       0.993402      -0.00149768   0.00086134
  7845.32       0.80366       0.997676       0.996815       0.99083       0.00362385   0.00141089