File: Dynamic XAS/Dynamic XAS Energy analyzed data/ESweep_0_5 Hz/Same Eo/Normalized Spectra/Ir0_5Hz_ReaddMean_VPhsCorrect_46_-106_mV_.csv.nor
# XDI/1.0 Athena/0.9.26
# Element.edge:                  K
# Element.symbol:                Co
# Column.1:                      energy eV
# Column.2:                      norm
# Column.3:                      nbkg
# Column.4:                      flat
# Column.5:                      fbkg
# Column.6:                      nder
# Column.7:                      nsec
# Athena.e0:                     7721.54
# Athena.eshift:                 0
# Athena.rbkg:                   1.0
# Athena.importance:             1
# Athena.standard:               None
# Athena.bkg_kweight:            3
# Athena.edge_step:              1.19286
# Athena.fixed_step:             no
# Athena.pre_edge_range:         -82.964 -19.904
# Athena.pre_edge_line:          0.004182 + 0.000214121 * E
# Athena.normalization_range:    45 125.256
# Athena.post_edge_polynomial:   15.6271 - 0.00165469 * E + 0 * E^2 + 0 * E^3
# Athena.spline_range_energy:    0.000 125.180
# Athena.clamps:                 0 24
# Athena.spline_range_k:         0.000 5.732
# Athena.kweight:                2
# Athena.window:                 hanning
# Athena.phase_correction:       no
# Athena.k_range:                .4 5.35
# Athena.dk:                     .5
# Athena.r_range:                .4 5.1
# Athena.dr:                     .5
# Athena.window:                 hanning
# Athena.plot_multiplier:        1
# Athena.y_offset:               0.2
# ///
#------------------------
#   e         norm        nbkg        flat        fbkg        nder        nsec
  7600.07      -0.215513      -0.015513  -0.215513      -0.215513       0.0125953  -0.000539
  7610.64      -0.0823301   0.11767      -0.0823301  -0.0823301   0.00689594  -0.000399858
  7624.56      -0.0466384   0.153362      -0.0466384  -0.0466384   0.00280321  -0.000213222
  7637.2      -0.00787964   0.19212      -0.00787964  -0.00787964   0.00123298  -0.000125754
  7649.7      -0.0156376   0.184362      -0.0156376  -0.0156376  -0.000358627   0.000105257
  7662.2      -0.016845   0.183155      -0.016845  -0.016845   0.00386431   2.20639e-05
  7674.73       0.0811016   0.281102       0.0811016   0.0811016   0.000193721  -0.000295024
  7687.33      -0.0119764   0.188024      -0.0119764  -0.0119764  -0.00355023   1.10512e-05
  7700.01      -0.00863769   0.191362      -0.00863769  -0.00863769   0.000473061   0.000890347
  7700.39      -0.0057996   0.1942      -0.0057996  -0.0057996   0.00807503   0.0051773
  7700.72      -0.0029125   0.197087      -0.0029125  -0.0029125   0.00414377  -0.0175361
  7701.07      -0.00296941   0.197031      -0.00296941  -0.00296941  -0.00390216  -0.00535669
  7701.43      -0.00570254   0.194297      -0.00570254  -0.00570254   0.000313736   0.0112719
  7701.8      -0.00274132   0.197259      -0.00274132  -0.00274132   0.00429253  -0.00423537
  7702.15      -0.00260763   0.197392      -0.00260763  -0.00260763  -0.00273997  -0.0118387
  7702.52      -0.00470588   0.195294      -0.00470588  -0.00470588  -0.00419579   0.00218074
  7702.88      -0.00564538   0.194355      -0.00564538  -0.00564538  -0.00116111   0.00221897
  7703.24      -0.00555001   0.19445      -0.00555001  -0.00555001  -0.0025826   0.00258891
  7703.6      -0.00750743   0.192493      -0.00750743  -0.00750743   0.000705494   0.0152582
  7703.96      -0.00504276   0.194957      -0.00504276  -0.00504276   0.00838805   0.00677993
  7704.32      -0.0014261   0.198574      -0.0014261  -0.0014261   0.00562094  -0.015652
  7704.69      -0.000961954   0.199038      -0.000961954  -0.000961954  -0.00297531  -0.013829
  7705.02      -0.00349394   0.196506      -0.00349394  -0.00349394  -0.00399021   0.00856807
  7705.38      -0.00373116   0.196269      -0.00373116  -0.00373116   0.00297094   0.0275936
  7705.75      -0.00132812   0.198672      -0.00132812  -0.00132812   0.0161255   0.0289987
  7706.11       0.0080566   0.208057       0.0080566   0.0080566   0.024169   0.0197387
  7706.47       0.0161219   0.216122       0.0161219   0.0161219   0.0303768   0.0118923
  7706.83       0.0298976   0.229898       0.0298976   0.0298976   0.0327195  -0.00654564
  7707.2       0.0398436   0.239844       0.0398436   0.0398436   0.0256313  -0.0209342
  7707.56       0.0485059   0.248506       0.0485059   0.0485059   0.0175213  -0.0291419
  7707.91       0.0524414   0.252441       0.0524414   0.0524414   0.00467822  -0.0225629
  7708.28       0.0518882   0.251888       0.0518882   0.0518882   0.00120831  -0.00898775
  7708.65       0.0533246   0.253325       0.0533246   0.0533246  -0.00189183  -0.0135382
  7708.98       0.0505601   0.25056       0.0505601   0.0505601  -0.00829553   0.00651371
  7709.29       0.0479823   0.247982       0.0479823   0.0479823   0.002303   0.0246392
  7709.6       0.0519742   0.251974       0.0519742   0.0519742   0.00683296  -0.010808
  7709.9       0.0521709   0.252171       0.0521709   0.0521709  -0.00432231  -0.0328788
  7710.21       0.049316   0.249316       0.049316   0.049316  -0.0133875  -0.00601177
  7710.51       0.0439912   0.243991       0.0439912   0.0439912  -0.0079955   0.0255803
  7710.82       0.0444227   0.244423       0.0444227   0.0444227   0.00226761   0.0333424
  7711.11       0.0453381   0.245338       0.0453381   0.0453381   0.0118099   0.00627712
  7711.42       0.051426   0.251426       0.051426   0.051426   0.00598995  -0.0283624
  7711.73       0.0490339   0.249034       0.0490339   0.0490339  -0.00568971  -0.00761637
  7712.03       0.0479382   0.247938       0.0479382   0.0479382   0.00132111   0.00691425
  7712.33       0.0498372   0.249837       0.0498371   0.0498371  -0.00148584   0.00924093
  7712.64       0.0470244   0.247024       0.0470244   0.0470244   0.00700428   0.0305156
  7712.95       0.0541798   0.25418       0.0541798   0.0541798   0.0174338   0.0282799
  7713.23       0.0573278   0.257328       0.0573278   0.0573278   0.0237177   0.0505157
  7713.54       0.0680547   0.268055       0.0680547   0.0680547   0.0469855   0.0670607
  7713.85       0.0863648   0.286365       0.0863648   0.0863648   0.0651612   0.0507876
  7714.16       0.10865       0.30865       0.10865       0.10865       0.0786262   0.0147392
  7714.47       0.134877       0.334877       0.134877       0.134877       0.0742553  -0.043114
  7714.78       0.154391       0.354391       0.154391       0.154391       0.0520679  -0.0613476
  7715.08       0.166482       0.366482       0.166482       0.166482       0.0370174  -0.00494722
  7715.39       0.176935       0.376935       0.176935       0.176935       0.0490551   0.0216569
  7715.67       0.195572       0.395572       0.195572       0.195572       0.0498599  -0.0489409
  7715.97       0.206153       0.406153       0.206153       0.206153       0.0203757  -0.0692532
  7716.14       0.205088       0.405087       0.205087       0.205087       0.0175187   0.106103
  7716.26       0.211111       0.411111       0.211111       0.211111       0.0504029   0.158553
  7716.37       0.21668       0.41668       0.21668       0.21668       0.0539859   0.0762744
  7716.5       0.224283       0.424283       0.224283       0.224283       0.0690139   0.0886222
  7716.62       0.234141       0.434141       0.234141       0.234141       0.0764074  -0.0808999
  7716.73       0.242163       0.442163       0.242163       0.242163       0.0500833  -0.204796
  7716.87       0.246511       0.446511       0.246511       0.246511       0.0258227  -0.0558233
  7716.99       0.248747       0.448747       0.248747       0.248747       0.0358484   0.0982665
  7717.1       0.2549       0.4549       0.2549       0.2549       0.0488171   0.0716591
  7717.23       0.260708       0.460708       0.260708       0.260708       0.0534049   0.210856
  7717.35       0.268198       0.468198       0.268198       0.268198       0.10132       0.0376268
  7717.46       0.28391       0.48391       0.28391       0.28391       0.0620214  -0.219083
  7717.59       0.283207       0.483207       0.283207       0.283207       0.0483022   0.0970594
  7717.71       0.295889       0.495889       0.295889       0.295889       0.0860921   0.153755
  7717.84       0.30473       0.50473       0.30473       0.30473       0.0867409   0.0908834
  7717.96       0.317574       0.517574       0.317574       0.317574       0.108813       0.148842
  7718.07       0.329974       0.529974       0.329974       0.329974       0.121272      -0.0697032
  7718.21       0.347407       0.547407       0.347407       0.347407       0.091666  -0.254013
  7718.33       0.353258       0.553258       0.353258       0.353258       0.056753   0.0771895
  7718.44       0.360744       0.560744       0.360744       0.360744       0.109806       0.24125
  7718.57       0.38016       0.58016       0.38016       0.38016       0.115859      -0.049169
  7718.69       0.38994       0.58994       0.38994       0.38994       0.0974149  -0.0642303
  7718.81       0.40276       0.60276       0.40276       0.40276       0.100958       0.130267
  7718.94       0.414473       0.614473       0.414473       0.414473       0.12907       0.251046
  7719.06       0.435157       0.635157       0.435157       0.435157       0.16397      -0.00861481
  7719.17       0.452514       0.652514       0.452514       0.452514       0.127071      -0.180857
  7719.3       0.466035       0.666035       0.466035       0.466035       0.120022       0.0685671
  7719.42       0.48276       0.68276       0.48276       0.48276       0.14435       0.119176
  7719.53       0.500102       0.700102       0.500102       0.500102       0.148148       0.042688
  7719.67       0.519204       0.719204       0.519204       0.519204       0.154851      -0.034303
  7719.79       0.539279       0.739279       0.539279       0.539279       0.139469       0.0855726
  7719.9       0.551979       0.751979       0.551979       0.551979       0.174961       0.289296
  7720.03       0.582319       0.782319       0.582319       0.582319       0.210636       0.173372
  7720.15       0.60527       0.80527       0.60527       0.60527       0.218824      -0.0759129
  7720.27       0.633305       0.833305       0.633305       0.633305       0.192948      -0.244461
  7720.4       0.652157       0.852157       0.652157       0.652157       0.15942      -0.16782
  7720.52       0.673001       0.873001       0.673001       0.673001       0.151161       0.058815
  7720.65       0.689796       0.889796       0.689796       0.689796       0.174065       0.217356
  7720.77       0.716517       0.916517       0.716517       0.716517       0.2055       0.198746
  7720.88       0.737677       0.937677       0.737677       0.737677       0.220373       0.102074
  7721.01       0.770949       0.970949       0.770949       0.770949       0.230712      -0.213269
  7721.13       0.796278       0.996278       0.796278       0.796278       0.166202      -0.153551
  7721.25       0.809674        1.00967       0.809674       0.809674       0.194935       0.323212
  7721.38       0.844232        1.04423       0.844232       0.844232       0.245712       0.199627
  7721.5       0.872085        1.07208       0.872022       0.872022       0.24564      -0.131891
  7721.61       0.901466        2.22642       0.901579        2.02653       0.214982      -0.136689
  7721.74       0.924541        2.20955       0.92486        2.00987       0.212288       0.20285
  7721.86       0.954538        2.1946       0.955043        1.9951       0.265694      -0.0818901
  7721.97       0.98565        2.18052       0.98633        1.9812       0.193453      -0.543148
  7722.1        1.00135        2.16433        1.00224        1.96521       0.134253       0.0341774
  7722.23        1.01948        2.14926        1.02056        1.95033       0.202066       0.252867
  7722.36        1.05268        2.13311        1.05396        1.93439       0.198481      -0.223226
  7722.48        1.0697        2.11843        1.07117        1.9199       0.14559      -0.204935
  7722.59        1.08689        2.10472        1.08854        1.90637       0.150321      -0.143654
  7722.72        1.10653        2.08911        1.10838        1.89096       0.110395      -0.173096
  7722.85        1.11482        2.0747        1.11687        1.87675       0.106528       0.169332
  7722.96        1.13145        2.06159        1.13368        1.86381       0.150018       0.18186
  7723.05        1.14558        2.05078        1.14794        1.85315       0.143809      -0.14508
  7723.21        1.16813        2.03213        1.17075        1.83475       0.113023      -0.113161
  7723.41        1.1857        2.0102        1.18862        1.81312       0.103637       0.00220732
  7723.6        1.20854        1.98814        1.21178        1.79137       0.113884      -0.035787
  7723.8        1.23057        1.9664        1.23411        1.76994       0.0895372  -0.132777
  7724        1.24409        1.94466        1.24794        1.74852       0.0611714  -0.177321
  7724.2        1.25492        1.92347        1.25908        1.72763       0.0189634  -0.166001
  7724.4        1.2516        1.90259        1.25607        1.70706      -0.00456498  -0.0289012
  7724.59        1.25312        1.88224        1.2579        1.68702       0.00757627  -0.0182957
  7724.79        1.25458        1.8621        1.25967        1.66719      -0.0117552  -0.0892535
  7725.01        1.24823        1.84007        1.25366        1.6455      -0.0295532  -0.0270774
  7725.72        1.22697        1.77078        1.23353        1.57733      -0.0370455  -0.00874253
  7726.51        1.1927        1.69934        1.20048        1.50712      -0.0426582   0.00144416
  7727.3        1.15962        1.63158        1.16864        1.44061      -0.0347652   0.00613146
  7728.07        1.1385        1.57078        1.14872        1.381      -0.0330993   0.00443161
  7728.83        1.10904        1.51406        1.12046        1.32549      -0.0279937   0.0142436
  7729.59        1.09575        1.46137        1.10837        1.27399      -0.0113494   0.0151627
  7730.35        1.09176        1.41267        1.10556        1.22647      -0.00490084   0.00524491
  7731.15        1.08813        1.36567        1.10319        1.18073      -0.00319876   0.00327232
  7731.91        1.08678        1.32412        1.10302        1.14037       0.000194153  -0.00380131
  7732.68        1.08843        1.28568        1.10588        1.10313      -0.00902236  -0.00595821
  7733.44        1.07296        1.25086        1.09161        1.0695      -0.00892786   0.00640325
  7734.21        1.07473        1.21872        1.09458        1.03857       0.000806622  -0.000550388
  7734.98        1.0742        1.19004        1.09525        1.01109      -0.00977271  -0.0101291
  7735.77        1.05947        1.16302        1.08177       0.985327      -0.0150048   0.00593503
  7736.54        1.05075        1.13998        1.07425       0.963477      -0.000496251   0.00691681
  7737.31        1.05871        1.11937        1.08342       0.944073      -0.00439445  -0.0129872
  7738.08        1.04399        1.10127        1.06989       0.927176      -0.0204835  -0.00950066
  7738.84        1.02727        1.08556        1.05438       0.912674      -0.018978   0.00511593
  7739.62        1.0148        1.07195        1.04312       0.900273      -0.0126152   0.00322064
  7740.39        1.00779        1.06043        1.03732       0.889955      -0.0140053  -0.00450979
  7741.16       0.993159        1.05083        1.0239       0.881571      -0.0195828  -0.00630411
  7741.95       0.977163        1.04288        1.00914       0.874861      -0.0238649  -0.000599161
  7744.45       0.914619        1.02851       0.950515       0.864403      -0.0215547   0.00153578
  7746.97       0.869023        1.02682       0.908862       0.866656      -0.0161599   0.00187316
  7749.45       0.833803        1.03301       0.877534       0.876736      -0.012187   0.00118819
  7751.94       0.808503        1.04232       0.856122       0.889938      -0.0102594   0.00095028
  7754.45       0.782486        1.05139       0.834053       0.902956      -0.00743369   0.00199573
  7756.95       0.77123        1.05951       0.826704       0.914985      -0.000252802   0.00259521
  7759.43       0.781228        1.06677       0.840589       0.926131       0.00547746   0.00155035
  7761.95       0.798607        1.07332       0.861911       0.936627       0.00749585   0.00113597
  7764.47       0.818992        1.07909       0.886246       0.946345       0.0112005   0.000552095
  7766.97       0.85481        1.08405       0.925976       0.955212       0.0102663  -0.000191131
  7769.46       0.870262        1.08827       0.94534       0.963347       0.010246   9.87911e-05
  7771.99       0.906266        1.09182       0.985299       0.970855       0.0107624  -0.00105724
  7774.49       0.924354        1.09465        1.00731       0.977605       0.00493227  -0.00177212
  7777       0.930976        1.09683        1.01786       0.983713       0.00188406  -0.000700758
  7780.56       0.935798        1.09883        1.02827       0.991298       0.000675871  -0.000819477
  7784.15       0.93581        1.09961        1.0339       0.997699      -0.00397683  -0.000485711
  7787.69       0.907439        1.09924        1.01108        1.00288      -0.00278774   0.000685438
  7791.28       0.915925        1.09778        1.02519        1.00704       0.000912396   0.000125385
  7794.86       0.91398        1.09531        1.02885        1.01018      -0.00188886  -0.000627795
  7798.44       0.902412        1.0919        1.02288        1.01237      -0.00357885  -0.000180653
  7802.02       0.88838        1.08762        1.01446        1.01369      -0.00318106   4.69355e-05
  7805.61       0.879579        1.0825        1.01129        1.01422      -0.00324194   8.07979e-05
  7809.2       0.865074        1.07667        1.00241        1.01401      -0.00260021   0.000432393
  7812.81       0.86087        1.07015        1.00386        1.01314      -0.000130875  -8.22925e-06
  7816.38       0.864135        1.06311        1.01272        1.01169      -0.00265927  -0.000447168
  7819.99       0.841763        1.05546       0.996008        1.00971      -0.00334378   5.74675e-05
  7823.6       0.839979        1.04738       0.999881        1.00728      -0.00224413  -0.000134359
  7827.22       0.825541        1.03891       0.991111        1.00448      -0.00431506   1.15821e-05
  7830.81       0.808872        1.0302       0.980068        1.00139      -0.00216063   0.000692839
  7834.44       0.809952        1.02118       0.986825       0.998057       0.000683775  -7.12834e-05
  7838.06       0.813827        1.01202       0.996375       0.99457      -0.00267715  -0.000350235
  7841.69       0.790537        1.00276       0.978772       0.990997      -0.00185613   0.000741158
  7845.32       0.800351       0.993499       0.994273       0.987421       0.00270366   0.00125614