File: Dynamic XAS/Dynamic XAS Energy analyzed data/ESweep_0_5 Hz/Same Eo/Normalized Spectra/Ir0_5Hz_ReaddMean_VPhsCorrect_42_-202_mV_.csv.nor
# XDI/1.0 Athena/0.9.26
# Element.edge:                  K
# Element.symbol:                Co
# Column.1:                      energy eV
# Column.2:                      norm
# Column.3:                      nbkg
# Column.4:                      flat
# Column.5:                      fbkg
# Column.6:                      nder
# Column.7:                      nsec
# Athena.e0:                     7721.54
# Athena.eshift:                 0
# Athena.rbkg:                   1.0
# Athena.importance:             1
# Athena.standard:               None
# Athena.bkg_kweight:            3
# Athena.edge_step:              1.1911
# Athena.fixed_step:             no
# Athena.pre_edge_range:         -82.964 -19.904
# Athena.pre_edge_line:          -0.050136 + 0.000221173 * E
# Athena.normalization_range:    45 125.256
# Athena.post_edge_polynomial:   15.4845 - 0.00163643 * E + 0 * E^2 + 0 * E^3
# Athena.spline_range_energy:    0.000 125.180
# Athena.clamps:                 0 24
# Athena.spline_range_k:         0.000 5.732
# Athena.kweight:                2
# Athena.window:                 hanning
# Athena.phase_correction:       no
# Athena.k_range:                .4 5.35
# Athena.dk:                     .5
# Athena.r_range:                .4 5.1
# Athena.dr:                     .5
# Athena.window:                 hanning
# Athena.plot_multiplier:        1
# Athena.y_offset:               0.2
# ///
#------------------------
#   e         norm        nbkg        flat        fbkg        nder        nsec
  7600.07      -0.213486      -0.0134862  -0.213486      -0.213486       0.0123504  -0.00052088
  7610.64      -0.0828926   0.117107      -0.0828926  -0.0828926   0.00684266  -0.000389154
  7624.56      -0.0459162   0.154084      -0.0459162  -0.0459162   0.00282046  -0.000212663
  7637.2      -0.00798402   0.192016      -0.00798403  -0.00798403   0.00119454  -0.000124832
  7649.7      -0.015882   0.184118      -0.015882  -0.015882  -0.000318196   0.000105717
  7662.2      -0.0159386   0.184061      -0.0159386  -0.0159386   0.00383735   1.99697e-05
  7674.73       0.0801824   0.280182       0.0801824   0.0801824   0.000181725  -0.000292362
  7687.33      -0.0113715   0.188629      -0.0113715  -0.0113715  -0.00351029   8.66218e-06
  7700.01      -0.00854724   0.191453      -0.00854724  -0.00854724   0.000400679   0.000890259
  7700.39      -0.00613984   0.19386      -0.00613984  -0.00613984   0.00811382   0.00633759
  7700.72      -0.00279454   0.197205      -0.00279454  -0.00279454   0.00489403  -0.0190785
  7701.07      -0.00279722   0.197203      -0.00279722  -0.00279722  -0.00491679  -0.00611407
  7701.43      -0.00631004   0.19369      -0.00631004  -0.00631004   0.000522464   0.0143693
  7701.8      -0.00241739   0.197583      -0.00241739  -0.00241739   0.00552972  -0.00461893
  7702.15      -0.00232312   0.197677      -0.00232312  -0.00232312  -0.00280778  -0.0156973
  7702.52      -0.00443057   0.195569      -0.00443057  -0.00443057  -0.00572527   0.0023784
  7702.88      -0.00646821   0.193532      -0.00646821  -0.00646821  -0.00108582   0.00703576
  7703.24      -0.00521996   0.19478      -0.00521996  -0.00521996  -0.000610277   0.00178474
  7703.6      -0.00690822   0.193092      -0.00690822  -0.00690822   0.000200977   0.0108292
  7703.96      -0.00507546   0.194925      -0.00507546  -0.00507546   0.00717594   0.00653805
  7704.32      -0.00170567   0.198294      -0.00170567  -0.00170567   0.00494106  -0.0108143
  7704.69      -0.00148825   0.198512      -0.00148825  -0.00148825  -0.000675241  -0.0129872
  7705.02      -0.00217496   0.197825      -0.00217496  -0.00217496  -0.00408504   0.000465137
  7705.38      -0.00432327   0.195677      -0.00432327  -0.00432327  -0.000352436   0.0288009
  7705.75      -0.00243189   0.197568      -0.00243189  -0.00243189   0.0169108   0.0363954
  7706.11       0.00803856   0.208039       0.00803856   0.00803856   0.0262526   0.0192709
  7706.47       0.0165225   0.216523       0.0165225   0.0165225   0.0308244   0.00880128
  7706.83       0.0302013   0.230201       0.0302013   0.0302013   0.0325807  -0.00740513
  7707.2       0.0401435   0.240144       0.0401435   0.0401435   0.0254557  -0.0220924
  7707.56       0.0486822   0.248682       0.0486822   0.0486822   0.0165417  -0.0293246
  7707.91       0.052037   0.252037       0.052037   0.052037   0.00437135  -0.0196005
  7708.28       0.0518427   0.251843       0.0518427   0.0518427   0.0023705  -0.00869981
  7708.65       0.0537698   0.25377       0.0537698   0.0537698  -0.0019882  -0.0161953
  7708.98       0.050447   0.250447       0.050447   0.050447  -0.00899857   0.0057369
  7709.29       0.0479747   0.247975       0.0479747   0.0479747   0.00170636   0.0261572
  7709.6       0.0514947   0.251495       0.0514947   0.0514947   0.00706196  -0.00777472
  7709.9       0.0523037   0.252304       0.0523037   0.0523037  -0.00305955  -0.0307746
  7710.21       0.049613   0.249613       0.049613   0.049613  -0.0118644  -0.0105915
  7710.51       0.0450545   0.245055       0.0450545   0.0450545  -0.00953093   0.0215507
  7710.82       0.0437801   0.24378       0.0437801   0.0437801   0.00132459   0.037603
  7711.11       0.0458414   0.245841       0.0458414   0.0458414   0.0128052   0.00823503
  7711.42       0.0513736   0.251374       0.0513736   0.0513736   0.00620796  -0.0231314
  7711.73       0.0496717   0.249672       0.0496717   0.0496717  -0.00146682  -0.0102137
  7712.03       0.0504745   0.250474       0.0504745   0.0504745  -5.30429e-05  -0.00364916
  7712.33       0.0496394   0.249639       0.0496394   0.0496394  -0.0036855   0.0155276
  7712.64       0.0482079   0.248208       0.0482079   0.0482079   0.00949642   0.0300285
  7712.95       0.0555272   0.255527       0.0555272   0.0555272   0.0149322   0.0280002
  7713.23       0.0570328   0.257033       0.0570328   0.0570328   0.0260446   0.0556742
  7713.54       0.0707633   0.270763       0.0707633   0.0707633   0.0475016   0.0565416
  7713.85       0.0863888   0.286389       0.0863888   0.0863888   0.0609873   0.0525153
  7714.16       0.108758       0.308758       0.108758       0.108758       0.0802186   0.0248494
  7714.47       0.135884       0.335884       0.135884       0.135884       0.0763194  -0.0447459
  7714.78       0.155771       0.355771       0.155771       0.155771       0.0526551  -0.0678246
  7715.08       0.167845       0.367845       0.167845       0.167845       0.0351498  -0.0105872
  7715.39       0.177177       0.377177       0.177177       0.177177       0.0462075   0.0264484
  7715.67       0.195246       0.395246       0.195246       0.195246       0.0508337  -0.0296955
  7715.97       0.206966       0.406966       0.206966       0.206966       0.028806  -0.0679795
  7716.14       0.208699       0.408699       0.208699       0.208699       0.0190873   0.0373738
  7716.26       0.212368       0.412368       0.212368       0.212368       0.0393827   0.160955
  7716.37       0.217757       0.417757       0.217757       0.217757       0.0561069   0.129158
  7716.5       0.226058       0.426058       0.226058       0.226058       0.0708972   0.0367641
  7716.62       0.235694       0.435694       0.235694       0.235694       0.0654082  -0.11287
  7716.73       0.241363       0.441363       0.241363       0.241363       0.0444857  -0.0681508
  7716.87       0.246682       0.446682       0.246682       0.246682       0.048575  -0.0266702
  7716.99       0.25375       0.45375       0.25375       0.25375       0.0376848  -0.0632628
  7717.1       0.2555       0.4555       0.2555       0.2555       0.0337715   0.123448
  7717.23       0.262024       0.462024       0.262024       0.262024       0.0679295   0.277747
  7717.35       0.272414       0.472414       0.272414       0.272414       0.102931      -0.0772472
  7717.46       0.285595       0.485595       0.285595       0.285595       0.0502399  -0.239471
  7717.59       0.284572       0.484572       0.284572       0.284572       0.0449784   0.178656
  7717.71       0.29675       0.49675       0.29675       0.29675       0.0945466   0.160876
  7717.84       0.308209       0.508209       0.308209       0.308209       0.0851975   0.0333525
  7717.96       0.318049       0.518049       0.318049       0.318049       0.102885       0.205769
  7718.07       0.332078       0.532078       0.332078       0.332078       0.132936      -0.0322702
  7718.21       0.350751       0.550751       0.350751       0.350751       0.0949462  -0.319705
  7718.33       0.356195       0.556195       0.356195       0.356195       0.0517308   0.0403825
  7718.44       0.362908       0.562908       0.362908       0.362908       0.104436       0.281167
  7718.57       0.381782       0.581782       0.381782       0.381782       0.120617      -0.0635782
  7718.69       0.393303       0.593303       0.393303       0.393303       0.0884144  -0.138858
  7718.81       0.402294       0.602294       0.402294       0.402294       0.0884015   0.209544
  7718.94       0.414785       0.614785       0.414785       0.414785       0.139334       0.366971
  7719.06       0.437266       0.637266       0.437266       0.437266       0.180511      -0.040848
  7719.17       0.456663       0.656663       0.456663       0.456663       0.129857      -0.288098
  7719.3       0.468822       0.668822       0.468822       0.468822       0.110503       0.0446265
  7719.42       0.48451       0.68451       0.48451       0.48451       0.141103       0.146788
  7719.53       0.502122       0.702122       0.502122       0.502122       0.145145       0.0282848
  7719.67       0.520216       0.720216       0.520216       0.520216       0.148061       0.0524454
  7719.79       0.539581       0.739581       0.539581       0.539581       0.158414       0.180274
  7719.9       0.557443       0.757443       0.557443       0.557443       0.190425       0.129905
  7720.03       0.586426       0.786426       0.586426       0.586426       0.19037       0.096584
  7720.15       0.605607       0.805607       0.605607       0.605607       0.214861      -6.85627e-05
  7720.27       0.636489       0.836489       0.636489       0.636489       0.190354      -0.273574
  7720.4       0.651863       0.851863       0.651863       0.651863       0.148383      -0.124089
  7720.52       0.673436       0.873436       0.673436       0.673436       0.159456       0.143465
  7720.65       0.691568       0.891568       0.691568       0.691568       0.184105       0.25955
  7720.77       0.719462       0.919462       0.719462       0.719462       0.224344       0.0992242
  7720.88       0.74384       0.94384       0.74384       0.74384       0.207225      -0.0441029
  7721.01       0.770647       0.970647       0.770647       0.770647       0.21345      -0.0580602
  7721.13       0.798056       0.998056       0.798056       0.798056       0.192477      -0.0717384
  7721.25       0.815494        1.01549       0.815494       0.815494       0.196735       0.141113
  7721.38       0.846453        1.04645       0.846453       0.846453       0.227191       0.200122
  7721.5       0.873201        1.0732       0.873138       0.873138       0.247566      -0.0239498
  7721.61       0.904136        2.2376       0.904248        2.03771       0.221611      -0.120315
  7721.74       0.927274        2.22055       0.927592        2.02087       0.21821       0.16748
  7721.86       0.958689        2.20545       0.959191        2.00595       0.263481      -0.11849
  7721.97       0.987874        2.19123       0.988551        1.9919       0.190957      -0.557319
  7722.1        1.0049        2.17486        1.00578        1.97574       0.12861       0.0200802
  7722.23        1.02028        2.15964        1.02135        1.96071       0.196017       0.277678
  7722.36        1.05469        2.14332        1.05596        1.94459       0.19914      -0.172146
  7722.48        1.07067        2.12849        1.07213        1.92995       0.152464      -0.177286
  7722.59        1.09052        2.11464        1.09216        1.91628       0.157478      -0.193523
  7722.72        1.10925        2.09886        1.11109        1.90071       0.105051      -0.224648
  7722.85        1.1171        2.08431        1.11913        1.88634       0.100642       0.162932
  7722.96        1.1328        2.07106        1.13501        1.87327       0.143177       0.222818
  7723.05        1.14645        2.06014        1.1488        1.8625       0.146319      -0.108698
  7723.21        1.17011        2.0413        1.17272        1.8439       0.115459      -0.119162
  7723.41        1.18744        2.01914        1.19035        1.82205       0.104017      -0.0187333
  7723.6        1.21068        1.99685        1.21389        1.80007       0.108153      -0.0505485
  7723.8        1.23005        1.97489        1.23357        1.77842       0.0841008  -0.113912
  7724        1.24406        1.95293        1.2479        1.75677       0.0629303  -0.152866
  7724.2        1.25509        1.93152        1.25924        1.73566       0.02326  -0.153181
  7724.4        1.25328        1.91043        1.25773        1.71488       0.00227039  -0.0355447
  7724.59        1.25599        1.88987        1.26075        1.69463       0.00925542  -0.0416486
  7724.79        1.25691        1.86952        1.26198        1.67459      -0.0140975  -0.101256
  7725.01        1.25012        1.84727        1.25553        1.65267      -0.0328671  -0.0239954
  7725.72        1.22621        1.77727        1.23274        1.5838      -0.0365093  -0.00482424
  7726.51        1.1954        1.70511        1.20314        1.51285      -0.0400986   0.000826719
  7727.3        1.1629        1.63667        1.17189        1.44566      -0.0352039   0.00351072
  7728.07        1.14051        1.57526        1.15069        1.38544      -0.0346254   0.00463197
  7728.83        1.10999        1.51798        1.12136        1.32935      -0.0281262   0.0155972
  7729.59        1.09756        1.46477        1.11012        1.27733      -0.0108085   0.0149574
  7730.35        1.09353        1.41559        1.10727        1.22933      -0.00534611   0.00432239
  7731.15        1.08926        1.36814        1.10424        1.18312      -0.00409154   0.00354917
  7731.91        1.08716        1.32619        1.10333        1.14236       0.000179948  -0.00233679
  7732.68        1.08953        1.28738        1.1069        1.10475      -0.00767149  -0.00528265
  7733.44        1.07541        1.25223        1.09397        1.07079      -0.00790779   0.00473836
  7734.21        1.07739        1.2198        1.09716        1.03956      -0.000398115  -0.00207521
  7734.98        1.0748        1.19086        1.09576        1.01181      -0.0110932  -0.00919761
  7735.77        1.06008        1.16361        1.08228       0.985805      -0.0147556   0.00707314
  7736.54        1.05174        1.14036        1.07513       0.963752      -3.79111e-05   0.00638822
  7737.31        1.06002        1.11958        1.08461       0.944169      -0.00495606  -0.0126703
  7738.08        1.04411        1.10133        1.06991       0.92712      -0.0195374  -0.00779792
  7738.84        1.03003        1.08551        1.05702       0.912493      -0.0169259   0.00464664
  7739.62        1.01808        1.0718        1.04627       0.899987      -0.0123909   0.000739686
  7740.39        1.0109        1.06019        1.04029       0.889587      -0.0157838  -0.0061115
  7741.16       0.993695        1.05054        1.0243       0.88114      -0.0218332  -0.00541133
  7741.95       0.976751        1.04255        1.00858       0.874387      -0.0242471   0.000138667
  7744.45       0.913898        1.02816       0.949631       0.863897      -0.0213768   0.00168525
  7746.97       0.869503        1.02659       0.909161       0.866244      -0.0157922   0.00186203
  7749.45       0.834921        1.03295       0.878453       0.876487      -0.0120648   0.00104215
  7751.94       0.809589        1.04246       0.856992       0.889865      -0.0106169   0.000910147
  7754.45       0.781815        1.05171       0.833148       0.903039      -0.00751223   0.0021044
  7756.95       0.771923        1.05997       0.827146       0.915193      -6.54393e-05   0.00263547
  7759.43       0.78149        1.06735       0.840582       0.926438       0.00559923   0.00148995
  7761.95       0.799908        1.07399       0.862925       0.937009       0.00738132   0.00101212
  7764.47       0.818677        1.07983       0.885626       0.946779       0.0106983   0.000608211
  7766.97       0.853592        1.08483       0.924435       0.955676       0.0104333  -4.97946e-05
  7769.46       0.870781        1.08909       0.945518       0.963824       0.0104496   0.000111605
  7771.99       0.90607        1.09265       0.984745       0.971327       0.0109938  -0.0010998
  7774.49       0.926036        1.09548        1.00861       0.978056       0.00492201  -0.00184306
  7777       0.930729        1.09764        1.01722       0.98413       0.00176009  -0.000649243
  7780.56       0.936727        1.0996        1.02878       0.991648       0.000978504  -0.000799814
  7784.15       0.937727        1.10032        1.03537       0.997964      -0.00396018  -0.000567337
  7787.69       0.908486        1.09988        1.01166        1.00305      -0.00306718   0.00066307
  7791.28       0.915849        1.09834        1.02462        1.00711       0.000769492   0.000197274
  7794.86       0.914003        1.09579        1.02835        1.01014      -0.00165292  -0.000624571
  7798.44       0.904024        1.09231        1.02395        1.01223      -0.00369869  -0.000232225
  7802.02       0.887546        1.08796        1.01305        1.01347      -0.00331403   8.80792e-05
  7805.61       0.880236        1.0828        1.01136        1.01392      -0.00306646   0.000111005
  7809.2       0.865501        1.07694        1.00222        1.01366      -0.00251601   0.0004453
  7812.81       0.862133        1.07042        1.00447        1.01276       0.000137474  -3.88426e-05
  7816.38       0.866488        1.06341        1.0144        1.01132      -0.00279478  -0.000515942
  7819.99       0.842053        1.05584       0.995598        1.00938      -0.00356957   6.57543e-05
  7823.6       0.840702        1.04787       0.999879        1.00705      -0.00231977  -0.00012485
  7827.22       0.825283        1.03956       0.990103        1.00438      -0.00447211   3.46841e-05
  7830.81       0.808462        1.03107       0.978882        1.00149      -0.00206974   0.000727857
  7834.44       0.81035        1.02235       0.986422       0.998417       0.000779379  -7.57588e-05
  7838.06       0.814109        1.01354       0.99583       0.995257      -0.00261868  -0.000323139
  7841.69       0.791359        1.0047       0.978741       0.992085      -0.00156402   0.000793096
  7845.32       0.802755       0.995946       0.995798       0.988989       0.00313919   0.00129565