File: Dynamic XAS/Dynamic XAS Energy analyzed data/ESweep_0_5 Hz/Same Eo/Normalized Spectra/Ir0_5Hz_ReaddMean_VPhsCorrect_25_-16_mV_.csv.nor
# XDI/1.0 Athena/0.9.26
# Element.edge:                  K
# Element.symbol:                Co
# Column.1:                      energy eV
# Column.2:                      norm
# Column.3:                      nbkg
# Column.4:                      flat
# Column.5:                      fbkg
# Column.6:                      nder
# Column.7:                      nsec
# Athena.e0:                     7721.54
# Athena.eshift:                 0
# Athena.rbkg:                   1.0
# Athena.importance:             1
# Athena.standard:               None
# Athena.bkg_kweight:            3
# Athena.edge_step:              1.19367
# Athena.fixed_step:             no
# Athena.pre_edge_range:         -82.964 -19.904
# Athena.pre_edge_line:          0.127806 + 0.000198 * E
# Athena.normalization_range:    45 125.256
# Athena.post_edge_polynomial:   15.6176 - 0.00165346 * E + 0 * E^2 + 0 * E^3
# Athena.spline_range_energy:    0.000 125.180
# Athena.clamps:                 0 24
# Athena.spline_range_k:         0.000 5.732
# Athena.kweight:                2
# Athena.window:                 hanning
# Athena.phase_correction:       no
# Athena.k_range:                .4 5.35
# Athena.dk:                     .5
# Athena.r_range:                .4 5.1
# Athena.dr:                     .5
# Athena.window:                 hanning
# Athena.plot_multiplier:        1
# Athena.y_offset:               0.2
# ///
#------------------------
#   e         norm        nbkg        flat        fbkg        nder        nsec
  7600.07      -0.213691      -0.0136912  -0.213691      -0.213691       0.0120969  -0.000502518
  7610.64      -0.0857784   0.114222      -0.0857784  -0.0857784   0.00678328  -0.000373858
  7624.56      -0.0475754   0.152425      -0.0475754  -0.0475754   0.00294149  -0.000206682
  7637.2      -0.00765531   0.192345      -0.00765531  -0.00765531   0.001294  -0.00012968
  7649.7      -0.0150403   0.18496      -0.0150403  -0.0150403  -0.000319063   9.55101e-05
  7662.2      -0.0156316   0.184368      -0.0156316  -0.0156316   0.00368166   2.00671e-05
  7674.73       0.0771263   0.277126       0.0771263   0.0771263   0.000183297  -0.000281637
  7687.33      -0.0110249   0.188975      -0.0110249  -0.0110249  -0.00339644   8.84628e-06
  7700.01      -0.00872538   0.191275      -0.00872538  -0.00872538   0.000406905   0.000932776
  7700.39      -0.00571198   0.194288      -0.00571198  -0.00571198   0.00878282   0.00507241
  7700.72      -0.00249836   0.197502      -0.00249836  -0.00249836   0.00400324  -0.0207593
  7701.07      -0.00297777   0.197022      -0.00297777  -0.00297777  -0.00539576  -0.00276445
  7701.43      -0.00635633   0.193644      -0.00635633  -0.00635633   0.00202666   0.0151134
  7701.8      -0.00150439   0.198496      -0.00150439  -0.00150439   0.0055917  -0.00903086
  7702.15      -0.00232471   0.197675      -0.00232471  -0.00232471  -0.00448459  -0.0166067
  7702.52      -0.00471984   0.19528      -0.00471984  -0.00471984  -0.0063153   0.00383548
  7702.88      -0.00689699   0.193103      -0.00689699  -0.00689699  -0.00170771   0.00830074
  7703.24      -0.00596134   0.194039      -0.00596134  -0.00596134  -0.000280662   0.00489668
  7703.6      -0.00709935   0.192901      -0.00709935  -0.00709935   0.0018228   0.0110334
  7703.96      -0.00465075   0.195349      -0.00465075  -0.00465075   0.00765233   0.00186171
  7704.32      -0.00155141   0.198449      -0.00155141  -0.00155141   0.00317254  -0.011997
  7704.69      -0.00234749   0.197653      -0.00234749  -0.00234749  -0.0010575  -0.00817155
  7705.02      -0.00228637   0.197714      -0.00228637  -0.00228637  -0.00250669   0.000393331
  7705.38      -0.00408713   0.195913      -0.00408713  -0.00408713  -0.000784524   0.0241123
  7705.75      -0.00285829   0.197142      -0.00285829  -0.00285829   0.0150712   0.03406
  7706.11       0.00692988   0.20693       0.00692988   0.00692988   0.0241133   0.0196961
  7706.47       0.0145515   0.214552       0.0145515   0.0145515   0.0292917   0.0122398
  7706.83       0.0279906   0.227991       0.0279906   0.0279906   0.0329138  -0.00257112
  7707.2       0.038414   0.238414       0.038414   0.038414   0.0274277  -0.0219077
  7707.56       0.0479031   0.247903       0.0479031   0.0479031   0.0170088  -0.0313215
  7707.91       0.0506434   0.250643       0.0506434   0.0506434   0.00490752  -0.016544
  7708.28       0.0514512   0.251451       0.0514512   0.0514512   0.00504754  -0.00558993
  7708.65       0.0543331   0.254333       0.0543331   0.0543331   0.000821287  -0.0189638
  7708.98       0.0520278   0.252028       0.0520278   0.0520278  -0.00826504   0.00272484
  7709.29       0.0490104   0.24901       0.0490104   0.0490104   0.00257608   0.0263773
  7709.6       0.0536095   0.253609       0.0536095   0.0536095   0.00793061  -0.0172174
  7709.9       0.0538719   0.253872       0.0538719   0.0538719  -0.00797821  -0.0385641
  7710.21       0.0487029   0.248703       0.0487029   0.0487029  -0.0157863  -0.000680508
  7710.51       0.0442265   0.244226       0.0442265   0.0442265  -0.008394   0.0206275
  7710.82       0.0435658   0.243566       0.0435658   0.0435658  -0.00316227   0.0241921
  7711.11       0.0423481   0.242348       0.0423481   0.0423481   0.00597608   0.0122282
  7711.42       0.0471096   0.24711       0.0471096   0.0471096   0.00408906  -0.0198195
  7711.73       0.044871   0.244871       0.044871   0.044871  -0.00625254  -0.00676602
  7712.03       0.0432768   0.243277       0.0432768   0.0432768  -5.85106e-05  -0.000713359
  7712.33       0.0448354   0.244835       0.0448354   0.0448354  -0.00668626  -0.000221726
  7712.64       0.0391647   0.239165       0.0391647   0.0391647  -0.000194872   0.0356652
  7712.95       0.0447146   0.244715       0.0447146   0.0447146   0.0154261   0.0409786
  7713.23       0.0482816   0.248282       0.0482816   0.0482816   0.0240235   0.0513172
  7713.54       0.0587684   0.258768       0.0587684   0.0587684   0.0454467   0.0599309
  7713.85       0.0763676   0.276368       0.0763676   0.0763676   0.0610608   0.0515205
  7714.16       0.0968093   0.296809       0.0968093   0.0968093   0.077544   0.0133245
  7714.47       0.124212       0.324212       0.124212       0.124212       0.069282  -0.0546507
  7714.78       0.139487       0.339487       0.139487       0.139487       0.0438791  -0.0464844
  7715.08       0.150847       0.350847       0.150847       0.150847       0.041066   0.0106082
  7715.39       0.164496       0.364496       0.164496       0.164496       0.0503395   0.00270403
  7715.67       0.180698       0.380698       0.180698       0.180698       0.0426695  -0.0526956
  7715.97       0.189501       0.389501       0.189501       0.189501       0.0194599  -0.0419505
  7716.14       0.189786       0.389786       0.189786       0.189786       0.0230786   0.0350711
  7716.26       0.196032       0.396032       0.196032       0.196032       0.029385   0.0498352
  7716.37       0.196545       0.396545       0.196545       0.196545       0.0345407   0.21929
  7716.5       0.20446       0.40446       0.20446       0.20446       0.0828918   0.173749
  7716.62       0.217516       0.417516       0.217516       0.217516       0.0784991  -0.142959
  7716.73       0.222829       0.422828       0.222829       0.222829       0.0494395  -0.219701
  7716.87       0.229728       0.429728       0.229728       0.229728       0.024233  -0.0642329
  7716.99       0.229008       0.429008       0.229008       0.229008       0.0330601   0.110141
  7717.1       0.237464       0.437464       0.237464       0.237464       0.050006  -0.00125108
  7717.23       0.241259       0.441259       0.241259       0.241259       0.0327536   0.101103
  7717.35       0.245619       0.445619       0.245619       0.245619       0.0751807   0.156818
  7717.46       0.258476       0.458476       0.258476       0.258476       0.0686648  -0.105379
  7717.59       0.262236       0.462236       0.262236       0.262236       0.0496791   0.0487393
  7717.71       0.270796       0.470796       0.270796       0.270796       0.0807521   0.186987
  7717.84       0.282424       0.482424       0.282424       0.282424       0.0964259   0.10561
  7717.96       0.294903       0.494903       0.294903       0.294903       0.107155      -0.0276747
  7718.07       0.307284       0.507284       0.307284       0.307284       0.0900054  -0.108117
  7718.21       0.317044       0.517044       0.317044       0.317044       0.0805576  -0.063934
  7718.33       0.327746       0.527746       0.327746       0.327746       0.0737662   0.020185
  7718.44       0.334379       0.534379       0.334379       0.334379       0.0853011   0.0535878
  7718.57       0.348645       0.548645       0.348645       0.348645       0.0868952   0.0901659
  7718.69       0.356277       0.556277       0.356277       0.356277       0.108023       0.164799
  7718.81       0.373706       0.573706       0.373706       0.373706       0.125129      -0.0306909
  7718.94       0.386683       0.586683       0.386683       0.386683       0.100565       0.0225866
  7719.06       0.398948       0.598948       0.398948       0.398948       0.130798       0.118113
  7719.17       0.417028       0.617028       0.417028       0.417028       0.127967       0.0194691
  7719.3       0.430044       0.630044       0.430044       0.430044       0.135529       0.170749
  7719.42       0.451181       0.651181       0.451181       0.451181       0.170996       0.0767612
  7719.53       0.470399       0.670399       0.470399       0.470399       0.153644      -0.0848517
  7719.67       0.488978       0.688978       0.488978       0.488978       0.150123      -0.0979239
  7719.79       0.50838       0.70838       0.50838       0.50838       0.12887       0.0116538
  7719.9       0.519262       0.719262       0.519262       0.519262       0.152861       0.355109
  7720.03       0.545984       0.745984       0.545984       0.545984       0.216226       0.223485
  7720.15       0.573967       0.773967       0.573967       0.573967       0.209403      -0.140032
  7720.27       0.594775       0.794775       0.594775       0.594775       0.183599      -0.113101
  7720.4       0.618582       0.818582       0.618582       0.618582       0.18192      -0.0975988
  7720.52       0.640073       0.840073       0.640073       0.640073       0.159297      -0.0364857
  7720.65       0.658247       0.858247       0.658247       0.658247       0.172835       0.199448
  7720.77       0.683281       0.883281       0.683281       0.683281       0.209159       0.263233
  7720.88       0.706981       0.906981       0.706981       0.706981       0.234168       0.0577618
  7721.01       0.741121       0.941121       0.741121       0.741121       0.223426      -0.289154
  7721.13       0.763731       0.963731       0.763731       0.763731       0.160723      -0.133845
  7721.25       0.778569       0.978569       0.778569       0.778569       0.19224       0.332335
  7721.38       0.811022        1.01102       0.811022       0.811022       0.242477       0.276326
  7721.5       0.840158        1.04016       0.840096       0.840096       0.262427       0.00447361
  7721.61       0.872168        2.2668       0.87228        2.06691       0.243519      -0.17283
  7721.74       0.899577        2.24933       0.899893        2.04965       0.220257       0.132274
  7721.86       0.927232        2.23385       0.927731        2.03435       0.276588      -0.0698001
  7721.97       0.963192        2.21928       0.963865        2.01995       0.204203      -0.531608
  7722.1       0.976649        2.20251       0.977524        2.00339       0.147939       0.0599422
  7722.23        1.00047        2.18691        1.00154        1.98798       0.219308       0.319102
  7722.36        1.03235        2.17019        1.03362        1.97146       0.228991      -0.134724
  7722.48        1.05841        2.155        1.05986        1.95645       0.185223      -0.283748
  7722.59        1.07588        2.1408        1.07751        1.94244       0.16231      -0.259828
  7722.72        1.09817        2.12464        1.10001        1.92647       0.121565      -0.147044
  7722.85        1.10664        2.10972        1.10866        1.91175       0.125108       0.216434
  7722.96        1.12745        2.09614        1.12965        1.89834       0.17221       0.208866
  7723.05        1.14194        2.08495        1.14428        1.8873       0.167925      -0.147433
  7723.21        1.17027        2.06564        1.17286        1.86824       0.134615      -0.141308
  7723.41        1.18973        2.04294        1.19262        1.84583       0.117761      -0.0162232
  7723.6        1.2162        2.0201        1.2194        1.8233       0.128288      -0.0308712
  7723.8        1.24027        1.99759        1.24378        1.8011       0.105598      -0.140164
  7724        1.25812        1.97508        1.26193        1.7789       0.0726429  -0.209622
  7724.2        1.26919        1.95314        1.27331        1.75726       0.0221682  -0.16257
  7724.4        1.2669        1.93152        1.27133        1.73595       0.0082653  -0.0133945
  7724.59        1.27244        1.91045        1.27718        1.71519       0.0168908  -0.0652079
  7724.79        1.27354        1.8896        1.27857        1.69464      -0.0173614  -0.117195
  7725.01        1.26522        1.86679        1.2706        1.67217      -0.0318622  -0.024885
  7725.72        1.24378        1.79505        1.25026        1.60153      -0.040604  -0.0107051
  7726.51        1.20435        1.72107        1.21206        1.52877      -0.0479091   0.000744602
  7727.3        1.16813        1.65091        1.17706        1.45985      -0.0394282   0.00612489
  7728.07        1.14289        1.58795        1.15301        1.39807      -0.0383604   0.0061309
  7728.83        1.10951        1.52922        1.12082        1.34053      -0.0300602   0.0186542
  7729.59        1.09698        1.47465        1.10947        1.28714      -0.00987537   0.0185801
  7730.35        1.09447        1.42421        1.10814        1.23788      -0.0017627   0.00603756
  7731.15        1.09424        1.37554        1.10915        1.19044      -0.000493012   0.00198704
  7731.91        1.0937        1.33251        1.10979        1.14859       0.00133112  -0.00497466
  7732.68        1.09628        1.29269        1.11356        1.10997      -0.00811419  -0.00677149
  7733.44        1.08128        1.25662        1.09974        1.07508      -0.00903604   0.00428053
  7734.21        1.08241        1.22332        1.10207        1.04298      -0.00154358  -0.00192506
  7734.98        1.07891        1.19361        1.09975        1.01445      -0.011991  -0.00909029
  7735.77        1.0637        1.16562        1.08577       0.9877      -0.0157335   0.00683446
  7736.54        1.05432        1.14174        1.07759       0.965004      -0.00130874   0.00725029
  7737.31        1.06169        1.12038        1.08615       0.944838      -0.00461158  -0.0125669
  7738.08        1.04722        1.10162        1.07288       0.927268      -0.0206492  -0.00900528
  7738.84        1.02999        1.08534        1.05683       0.912179      -0.0184347   0.00671879
  7739.62        1.01887        1.07123        1.04691       0.899264      -0.0103157   0.00279218
  7740.39        1.01406        1.05927        1.0433       0.888505      -0.0141236  -0.00733453
  7741.16       0.99705        1.04932        1.02748       0.879749      -0.0216476  -0.00655508
  7741.95       0.980207        1.04106        1.01187       0.872725      -0.0243757   4.51434e-05
  7744.45       0.91683        1.02612       0.952368       0.861656      -0.021499   0.00161328
  7746.97       0.872347        1.02431       0.911789       0.863753      -0.0162819   0.00159245
  7749.45       0.835404        1.03067       0.878699       0.873968      -0.0135352   0.00103628
  7751.94       0.805131        1.04028       0.852275       0.887429      -0.0111357   0.00113288
  7754.45       0.779704        1.04966       0.830757       0.900714      -0.00786851   0.00204408
  7756.95       0.765678        1.05807       0.8206       0.912992      -0.000886672   0.00273602
  7759.43       0.775292        1.0656       0.834062       0.924373       0.00574321   0.00169444
  7761.95       0.794383        1.07242       0.857057       0.935093       0.00758214   0.0010879
  7764.47       0.813491        1.07844       0.880075       0.945023       0.0112241   0.000710661
  7766.97       0.850705        1.08363       0.921162       0.954086       0.0111482  -2.80121e-05
  7769.46       0.869166        1.08808       0.943496       0.962405       0.0110842   2.50104e-05
  7771.99       0.90637        1.09184       0.984616       0.970087       0.0112738  -0.00118378
  7774.49       0.925828        1.09487        1.00795       0.976996       0.00513451  -0.00183097
  7777       0.932094        1.09724        1.01811       0.983253       0.00210067  -0.000680327
  7780.56       0.938587        1.09948        1.03013       0.991029       0.0010022  -0.000856286
  7784.15       0.939262        1.10049        1.03637       0.997599      -0.00402348  -0.000596171
  7787.69       0.909896        1.10032        1.0125        1.00293      -0.00324909   0.000655304
  7791.28       0.916086        1.09904        1.02426        1.00722       0.000650802   0.000261955
  7794.86       0.914562        1.09673        1.02829        1.01046      -0.00137113  -0.000567947
  7798.44       0.906277        1.09346        1.02555        1.01273      -0.00341229  -0.000272735
  7802.02       0.890154        1.0893        1.01498        1.01412      -0.003322   1.33356e-05
  7805.61       0.882431        1.08429        1.01284        1.01469      -0.00331657   0.000100174
  7809.2       0.866311        1.07854        1.00228        1.01451      -0.00260185   0.00046722
  7812.81       0.863711        1.07209        1.00527        1.01365       4.5086e-05  -1.84666e-05
  7816.38       0.866634        1.0651        1.01374        1.0122      -0.00273438  -0.000507883
  7819.99       0.844065        1.05749       0.996773        1.0102      -0.00360405   4.38842e-05
  7823.6       0.840599        1.04943       0.998908        1.00774      -0.00241736  -0.000110583
  7827.22       0.82659        1.04097       0.99051        1.00489      -0.00440345   3.15063e-05
  7830.81       0.808854        1.03226       0.978345        1.00175      -0.00219024   0.000747907
  7834.44       0.810787        1.02323       0.985899       0.998337       0.000992695  -8.09134e-05
  7838.06       0.816047        1.01404       0.996777       0.994765      -0.00277653  -0.0003992
  7841.69       0.790652        1.00474       0.977011       0.991096      -0.0019023   0.000822037
  7845.32       0.802237       0.995423       0.994227       0.987413       0.00319145   0.00140324