File: Dynamic XAS/Dynamic XAS Energy analyzed data/ESweep_0_5 Hz/Same Eo/Normalized Spectra/Ir0_5Hz_ReaddMean_VPhsCorrect_35_-242_mV_.csv.nor
# XDI/1.0 Athena/0.9.26
# Element.edge:                  K
# Element.symbol:                Co
# Column.1:                      energy eV
# Column.2:                      norm
# Column.3:                      nbkg
# Column.4:                      flat
# Column.5:                      fbkg
# Column.6:                      nder
# Column.7:                      nsec
# Athena.e0:                     7721.54
# Athena.eshift:                 0
# Athena.rbkg:                   1.0
# Athena.importance:             1
# Athena.standard:               None
# Athena.bkg_kweight:            3
# Athena.edge_step:              1.19404
# Athena.fixed_step:             no
# Athena.pre_edge_range:         -82.964 -19.904
# Athena.pre_edge_line:          -0.000389 + 0.00021468 * E
# Athena.normalization_range:    45 125.256
# Athena.post_edge_polynomial:   15.6818 - 0.00166165 * E + 0 * E^2 + 0 * E^3
# Athena.spline_range_energy:    0.000 125.180
# Athena.clamps:                 0 24
# Athena.spline_range_k:         0.000 5.732
# Athena.kweight:                2
# Athena.window:                 hanning
# Athena.phase_correction:       no
# Athena.k_range:                .4 5.35
# Athena.dk:                     .5
# Athena.r_range:                .4 5.1
# Athena.dr:                     .5
# Athena.window:                 hanning
# Athena.plot_multiplier:        1
# Athena.y_offset:               0.2
# ///
#------------------------
#   e         norm        nbkg        flat        fbkg        nder        nsec
  7600.07      -0.211459      -0.011459  -0.211459      -0.211459       0.0121184  -0.000506027
  7610.64      -0.0833188   0.116681      -0.0833188  -0.0833188   0.00676769  -0.000378567
  7624.56      -0.0457249   0.154275      -0.0457249  -0.0457249   0.0028477  -0.000209973
  7637.2      -0.00768659   0.192313      -0.00768659  -0.00768659   0.00119102  -0.000126229
  7649.7      -0.0157791   0.184221      -0.0157791  -0.0157791  -0.000326063   0.000104094
  7662.2      -0.0158378   0.184162      -0.0158378  -0.0158378   0.00379326   1.99068e-05
  7674.73       0.0791814   0.279181       0.0791814   0.0791814   0.000172285  -0.00028857
  7687.33      -0.011508   0.188492      -0.011508  -0.011508  -0.00345907   8.69128e-06
  7700.01      -0.00825362   0.191746      -0.00825362  -0.00825362   0.000391975   0.000907343
  7700.39      -0.00638994   0.19361      -0.00638994  -0.00638994   0.00838811   0.0063625
  7700.72      -0.00230645   0.197694      -0.00230645  -0.00230645   0.00490299  -0.0205712
  7701.07      -0.0030412   0.196959      -0.0030412  -0.0030412  -0.00566202  -0.00490012
  7701.43      -0.0063548   0.193645      -0.0063548  -0.0063548   0.0013994   0.0145366
  7701.8      -0.00202384   0.197976      -0.00202384  -0.00202384   0.00490608  -0.00767307
  7702.15      -0.00281751   0.197182      -0.00281751  -0.00281751  -0.00413288  -0.0140381
  7702.52      -0.00498712   0.195013      -0.00498712  -0.00498712  -0.00515921   0.00306301
  7702.88      -0.00655278   0.193447      -0.00655278  -0.00655278  -0.00191526   0.00718242
  7703.24      -0.00637951   0.19362      -0.00637951  -0.00637951   6.24063e-05   0.00586068
  7703.6      -0.00650779   0.193492      -0.00650779  -0.00650779   0.00231029   0.0105713
  7703.96      -0.00471841   0.195282      -0.00471841  -0.00471841   0.0076632   0.00486765
  7704.32      -0.000951964   0.199048      -0.000951964  -0.000951964   0.00583934  -0.0125346
  7704.69      -0.000479054   0.199521      -0.000479054  -0.000479054  -0.00143692  -0.0168158
  7705.02      -0.00195062   0.198049      -0.00195062  -0.00195062  -0.00584762   0.00149816
  7705.38      -0.0045373   0.195463      -0.0045373  -0.0045373  -0.000397195   0.0323315
  7705.75      -0.00224018   0.19776      -0.00224018  -0.00224018   0.017722   0.035853
  7706.11       0.00841751   0.208418       0.00841751   0.00841751   0.0258113   0.0148086
  7706.47       0.0163956   0.216396       0.0163956   0.0163956   0.0284138   0.0104133
  7706.83       0.0288471   0.228847       0.0288471   0.0288471   0.0332985  -0.000971199
  7707.2       0.040537   0.240537       0.040537   0.040537   0.0277097  -0.0226608
  7707.56       0.0489643   0.248964       0.0489643   0.0489643   0.0168468  -0.0325402
  7707.91       0.0526498   0.25265       0.0526498   0.0526498   0.00431328  -0.0218114
  7708.28       0.0520828   0.252083       0.0520828   0.0520828   0.00107714  -0.00875807
  7708.65       0.0534372   0.253437       0.0534372   0.0534372  -0.00208888  -0.012412
  7708.98       0.0506164   0.250616       0.0506164   0.0506164  -0.00763605   0.00860807
  7709.29       0.0485196   0.24852       0.0485196   0.0485196   0.00345472   0.0231879
  7709.6       0.0527376   0.252738       0.0527376   0.0527376   0.00660129  -0.0138221
  7709.9       0.0525662   0.252566       0.0525662   0.0525662  -0.00501822  -0.0333806
  7710.21       0.0496514   0.249651       0.0496514   0.0496514  -0.0139278  -0.00701602
  7710.51       0.0440564   0.244056       0.0440564   0.0440564  -0.00930501   0.0224636
  7710.82       0.0439567   0.243957       0.0439567   0.0439567  -0.000180046   0.0360849
  7711.11       0.0439494   0.243949       0.0439494   0.0439494   0.0121294   0.0155221
  7711.42       0.0511495   0.251149       0.0511495   0.0511495   0.00902455  -0.0233687
  7711.73       0.0495176   0.249518       0.0495176   0.0495176  -0.00228909  -0.0158593
  7712.03       0.0497463   0.249746       0.0497463   0.0497463  -0.000697231  -0.0111645
  7712.33       0.0490936   0.249094       0.0490936   0.0490936  -0.00907708   0.00982295
  7712.64       0.0441639   0.244164       0.0441639   0.0441639   0.00534389   0.0493605
  7712.95       0.0524068   0.252407       0.0524068   0.0524068   0.0215264   0.0337977
  7713.23       0.056886   0.256886       0.056886   0.056886   0.0253183   0.0422055
  7713.54       0.0672181   0.267218       0.0672181   0.0672181   0.0462166   0.065742
  7713.85       0.0854479   0.285448       0.0854479   0.0854479   0.0659469   0.0450646
  7714.16       0.108303       0.308303       0.108303       0.108303       0.0742919   0.00390581
  7714.47       0.131286       0.331286       0.131286       0.131286       0.0683568  -0.0386688
  7714.78       0.150411       0.350411       0.150411       0.150411       0.0504719  -0.0501018
  7715.08       0.161922       0.361922       0.161922       0.161922       0.037945  -0.00739509
  7715.39       0.173519       0.373519       0.173519       0.173519       0.0459683   0.0113082
  7715.67       0.189182       0.389182       0.189182       0.189182       0.0446507  -0.0263156
  7715.97       0.199685       0.399685       0.199685       0.199685       0.0305474  -0.0548506
  7716.14       0.203447       0.403447       0.203447       0.203447       0.0190355   0.0152798
  7716.26       0.205072       0.405072       0.205072       0.205072       0.0348715   0.157418
  7716.37       0.211468       0.411468       0.211468       0.211468       0.0552417   0.120515
  7716.5       0.218551       0.418551       0.218551       0.218551       0.0642771   0.040707
  7716.62       0.22773       0.42773       0.22773       0.22773       0.0655405  -0.0371318
  7716.73       0.233887       0.433887       0.233887       0.233887       0.0555882  -0.0464576
  7716.87       0.24146       0.44146       0.24146       0.24146       0.0540655  -0.0297699
  7716.99       0.247674       0.447674       0.247674       0.247674       0.0479969  -0.0506157
  7717.1       0.252691       0.452691       0.252691       0.252691       0.0422214  -0.016617
  7717.23       0.258018       0.458018       0.258018       0.258018       0.0439257   0.175621
  7717.35       0.263629       0.463629       0.263629       0.263629       0.0859512   0.153872
  7717.46       0.277701       0.477701       0.277701       0.277701       0.0791624  -0.185917
  7717.59       0.282786       0.482786       0.282786       0.282786       0.0409592   0.0495173
  7717.71       0.287859       0.487859       0.287859       0.287859       0.0914427   0.275181
  7717.84       0.305647       0.505647       0.305647       0.305647       0.109754      -0.102338
  7717.96       0.315297       0.515297       0.315297       0.315297       0.0658583  -0.0437546
  7718.07       0.320926       0.520926       0.320926       0.320926       0.0996034   0.254764
  7718.21       0.3398       0.5398       0.3398       0.3398       0.12853      -0.0611238
  7718.33       0.353573       0.553573       0.353573       0.353573       0.084078  -0.270782
  7718.44       0.359558       0.559558       0.359558       0.359558       0.0648965   0.00831199
  7718.57       0.369472       0.569472       0.369472       0.369472       0.0861144   0.121165
  7718.69       0.381259       0.581259       0.381259       0.381259       0.09543   0.109753
  7718.81       0.391612       0.591612       0.391612       0.391612       0.111577       0.136385
  7718.94       0.408372       0.608372       0.408372       0.408372       0.128572       0.176839
  7719.06       0.423884       0.623884       0.423884       0.423884       0.155964       0.00965156
  7719.17       0.444556       0.644556       0.444556       0.444556       0.130811      -0.203749
  7719.3       0.455671       0.655671       0.455671       0.455671       0.106452       0.184562
  7719.42       0.471382       0.671382       0.471382       0.471382       0.17732       0.203281
  7719.53       0.497518       0.697518       0.497518       0.497518       0.154427      -0.245969
  7719.67       0.509371       0.709371       0.509371       0.509371       0.116812       0.0800953
  7719.79       0.527072       0.727072       0.527072       0.527072       0.174691       0.293705
  7719.9       0.550423       0.750423       0.550423       0.550423       0.185833      -0.0141643
  7720.03       0.572786       0.772786       0.572786       0.572786       0.171206       0.123624
  7720.15       0.593738       0.793738       0.593738       0.593738       0.21711       0.120567
  7720.27       0.623373       0.823373       0.623373       0.623373       0.199299      -0.271272
  7720.4       0.642168       0.842168       0.642168       0.642168       0.151191      -0.141203
  7720.52       0.661019       0.861019       0.661019       0.661019       0.164139       0.101372
  7720.65       0.683039       0.883038       0.683038       0.683038       0.176432       0.264963
  7720.77       0.705127       0.905127       0.705127       0.705127       0.23038       0.217595
  7720.88       0.736717       0.936717       0.736717       0.736717       0.227132      -0.169234
  7721.01       0.761229       0.961229       0.761229       0.761229       0.188579      -0.116209
  7721.13       0.784616       0.984616       0.784616       0.784616       0.197615       0.0218581
  7721.25       0.807273        1.00727       0.807273       0.807273       0.193672       0.07343
  7721.38       0.832259        1.03226       0.832259       0.832259       0.215678       0.275725
  7721.5       0.862056        1.06206       0.861993       0.861993       0.263706       0.10801
  7721.61       0.893703        2.24389       0.893816        2.04401       0.240845      -0.191821
  7721.74       0.920822        2.22671       0.921142        2.02703       0.216902       0.0183685
  7721.86       0.947928        2.21148       0.948434        2.01199       0.245437      -0.0942501
  7721.97       0.977272        2.19715       0.977954        1.99783       0.195224      -0.39104
  7722.1       0.995173        2.18065       0.996059        1.98154       0.150805       0.00830488
  7722.23        1.01528        2.16531        1.01635        1.96639       0.197317       0.222009
  7722.36        1.04529        2.14886        1.04658        1.95014       0.207196      -0.0516242
  7722.48        1.0677        2.13391        1.06917        1.93539       0.184256      -0.301964
  7722.59        1.08859        2.11995        1.09025        1.9216       0.136234      -0.376407
  7722.72        1.10107        2.10405        1.10293        1.90591       0.0920363  -0.0697214
  7722.85        1.11188        2.08938        1.11393        1.89143       0.118594       0.290241
  7722.96        1.12882        2.07602        1.13105        1.87825       0.159953       0.16546
  7723.05        1.14467        2.06501        1.14704        1.86739       0.152514      -0.187295
  7723.21        1.16772        2.04602        1.17034        1.84865       0.112192      -0.141414
  7723.41        1.1845        2.02369        1.18743        1.82662       0.102312       0.0101745
  7723.6        1.20762        2.00122        1.21086        1.80447       0.11616      -0.0170077
  7723.8        1.23026        1.97909        1.23381        1.78264       0.0956108  -0.141917
  7724        1.24557        1.95695        1.24944        1.76082       0.0598193  -0.180264
  7724.2        1.25407        1.93537        1.25825        1.73955       0.0238659  -0.145635
  7724.4        1.25503        1.91412        1.25951        1.7186       0.00214777  -0.0509193
  7724.59        1.25492        1.89339        1.25971        1.69819       0.00380365  -0.00955578
  7724.79        1.25652        1.87288        1.26163        1.67799      -0.00160765  -0.0822541
  7725.01        1.25425        1.85046        1.2597        1.65591      -0.030414  -0.0395276
  7725.72        1.22811        1.77992        1.23469        1.58649      -0.0385264  -0.00697741
  7726.51        1.1965        1.70718        1.2043        1.51499      -0.0408732   0.000653707
  7727.3        1.16357        1.63822        1.17263        1.44727      -0.0374942   0.00229788
  7728.07        1.13804        1.57634        1.1483        1.38659      -0.0372908   0.00610483
  7728.83        1.10659        1.51862        1.11805        1.33008      -0.028166   0.0185468
  7729.59        1.09503        1.465        1.10769        1.27766      -0.00896976   0.0150189
  7730.35        1.09293        1.41546        1.10678        1.2293      -0.00529222   0.00335781
  7731.15        1.08681        1.36766        1.10191        1.18275      -0.00375172   0.00525744
  7731.91        1.08709        1.3254        1.10339        1.1417       0.00289362  -0.00278516
  7732.68        1.09124        1.28631        1.10875        1.10382      -0.00801859  -0.00777473
  7733.44        1.07482        1.25092        1.09352        1.06962      -0.00900949   0.00503083
  7734.21        1.07741        1.21826        1.09733        1.03817      -0.000296266  -0.00212006
  7734.98        1.07436        1.18912        1.09547        1.01023      -0.0122638  -0.0102177
  7735.77        1.05827        1.16169        1.08064       0.984056      -0.016246   0.00806208
  7736.54        1.04897        1.13829        1.07254       0.961863       0.000337241   0.00798365
  7737.31        1.05879        1.11738        1.08357       0.942162      -0.00399912  -0.0140341
  7738.08        1.04281        1.09903        1.0688       0.925016      -0.0212612  -0.00867714
  7738.84        1.02615        1.08312        1.05334       0.910312      -0.0173185   0.00649414
  7739.62        1.01618        1.06934        1.04458       0.897747      -0.0112732   0.00171478
  7740.39        1.00875        1.05769        1.03836       0.887305      -0.0146709  -0.00599997
  7741.16       0.993511        1.048        1.02434       0.878833      -0.0205431  -0.0063528
  7741.95       0.976616        1.03999        1.00869       0.872069      -0.0246067  -0.000397359
  7744.45       0.91253        1.02563       0.948534       0.861635      -0.0218508   0.00175289
  7746.97       0.86699        1.02418       0.906949       0.864139      -0.0158125   0.00187614
  7749.45       0.833452        1.03073       0.877315       0.874596      -0.0124683   0.00111529
  7751.94       0.805072        1.04044       0.852835       0.888205      -0.010274   0.00108088
  7754.45       0.782062        1.04988       0.833785       0.901599      -0.00706171   0.00188867
  7756.95       0.769665        1.05831       0.825307       0.913952      -0.000804187   0.00249332
  7759.43       0.778061        1.06584       0.837601       0.925377       0.00534255   0.00170053
  7761.95       0.796367        1.07262       0.859863       0.936115       0.00769506   0.00113967
  7764.47       0.816829        1.07858       0.884286       0.946036       0.0110842   0.000579959
  7766.97       0.851988        1.08369       0.923369       0.955067       0.0106053  -5.81597e-05
  7769.46       0.869792        1.08803       0.945096       0.963334       0.0107937   6.25116e-05
  7771.99       0.906194        1.09167       0.985466       0.970944       0.0109192  -0.0011727
  7774.49       0.924672        1.09456        1.00787       0.977765       0.00489975  -0.00178987
  7777       0.930741        1.09677        1.01789       0.98392       0.00195196  -0.000628206
  7780.56       0.936528        1.09879        1.02928       0.991533       0.00108402  -0.000849175
  7784.15       0.938494        1.09954        1.03688       0.997922      -0.00412134  -0.000620987
  7787.69       0.907139        1.09911        1.01109        1.00306      -0.00334423   0.000702677
  7791.28       0.91464        1.09757        1.02423        1.00716       0.000890855   0.000252003
  7794.86       0.913525        1.09499        1.02874        1.01021      -0.00153762  -0.00065915
  7798.44       0.90364        1.09148        1.02447        1.01231      -0.00382471  -0.000255699
  7802.02       0.886167        1.08709        1.01263        1.01354      -0.00336664   0.000104868
  7805.61       0.879474        1.08187        1.01159        1.01398      -0.00307196   0.000104358
  7809.2       0.864083        1.07595        1.00184        1.01371      -0.00261641   0.000431593
  7812.81       0.860649        1.06937        1.00407        1.01279       3.33507e-05   8.59607e-06
  7816.38       0.864322        1.06229        1.01336        1.01132      -0.00255471  -0.000512497
  7819.99       0.842293        1.05465       0.997004        1.00936      -0.00364894   1.78653e-05
  7823.6       0.837962        1.04662       0.998347        1.007      -0.00242565  -9.60754e-05
  7827.22       0.824758        1.03825       0.990829        1.00432      -0.00434347   4.44193e-05
  7830.81       0.80665        1.02971       0.978364        1.00143      -0.00210543   0.000738298
  7834.44       0.809568        1.02094       0.986976       0.998346       0.000983356  -9.21361e-05
  7838.06       0.813775        1.0121       0.996875       0.995196      -0.00277305  -0.00037883
  7841.69       0.789458        1.00324       0.978262       0.992047      -0.00176392   0.000818784
  7845.32       0.800969       0.994482       0.995478       0.98899       0.00317132   0.00135957