File: Dynamic XAS/Dynamic XAS Energy analyzed data/ESweep_0_5 Hz/Same Eo/Normalized Spectra/Ir0_5Hz_ReaddMean_VPhsCorrect_49_-16_mV_.csv.nor
# XDI/1.0 Athena/0.9.26
# Element.edge:                  K
# Element.symbol:                Co
# Column.1:                      energy eV
# Column.2:                      norm
# Column.3:                      nbkg
# Column.4:                      flat
# Column.5:                      fbkg
# Column.6:                      nder
# Column.7:                      nsec
# Athena.e0:                     7721.54
# Athena.eshift:                 0
# Athena.rbkg:                   1.0
# Athena.importance:             1
# Athena.standard:               None
# Athena.bkg_kweight:            3
# Athena.edge_step:              1.19364
# Athena.fixed_step:             no
# Athena.pre_edge_range:         -82.964 -19.904
# Athena.pre_edge_line:          -0.032886 + 0.000218905 * E
# Athena.normalization_range:    45 125.256
# Athena.post_edge_polynomial:   15.6338 - 0.00165547 * E + 0 * E^2 + 0 * E^3
# Athena.spline_range_energy:    0.000 125.180
# Athena.clamps:                 0 24
# Athena.spline_range_k:         0.000 5.732
# Athena.kweight:                2
# Athena.window:                 hanning
# Athena.phase_correction:       no
# Athena.k_range:                .4 5.35
# Athena.dk:                     .5
# Athena.r_range:                .4 5.1
# Athena.dr:                     .5
# Athena.window:                 hanning
# Athena.plot_multiplier:        1
# Athena.y_offset:               0.2
# ///
#------------------------
#   e         norm        nbkg        flat        fbkg        nder        nsec
  7600.07      -0.21983      -0.0198298  -0.21983      -0.21983       0.0132544  -0.00058165
  7610.64      -0.079678   0.120322      -0.079678  -0.079678   0.00710401  -0.000431703
  7624.56      -0.0458598   0.15414      -0.0458598  -0.0458598   0.0026824  -0.000220665
  7637.2      -0.00843606   0.191564      -0.00843606  -0.00843606   0.00124337  -0.000120638
  7649.7      -0.0145977   0.185402      -0.0145977  -0.0145977  -0.000350794   0.000102509
  7662.2      -0.0172056   0.182794      -0.0172056  -0.0172056   0.00380598   2.33001e-05
  7674.73       0.0806813   0.280681       0.0806813   0.0806813   0.000232501  -0.000293339
  7687.33      -0.0113623   0.188638      -0.0113623  -0.0113623  -0.0035662   6.10056e-06
  7700.01      -0.00946152   0.190538      -0.00946152  -0.00946152   0.000386705   0.00107547
  7700.39      -0.00631314   0.193687      -0.00631314  -0.00631314   0.0104763   0.00623911
  7700.72      -0.00203386   0.197966      -0.00203386  -0.00203386   0.00481023  -0.0238141
  7701.07      -0.00302775   0.196972      -0.00302775  -0.00302775  -0.00578878  -0.00488624
  7701.43      -0.00617283   0.193827      -0.00617283  -0.00617283   0.00131657   0.0150952
  7701.8      -0.0020706   0.197929      -0.0020706  -0.0020706   0.00518545  -0.00672581
  7702.15      -0.00243412   0.197566      -0.00243412  -0.00243412  -0.00353274  -0.0152574
  7702.52      -0.00460357   0.195396      -0.00460357  -0.00460357  -0.00575413   0.00193927
  7702.88      -0.00660011   0.1934      -0.00660011  -0.00660011  -0.00212871   0.00813854
  7703.24      -0.00615114   0.193849      -0.00615114  -0.00615114   0.000162581   0.00503175
  7703.6      -0.00648289   0.193517      -0.00648289  -0.00648289   0.00149919   0.00979995
  7703.96      -0.00507323   0.194927      -0.00507323  -0.00507323   0.00720874   0.00449095
  7704.32      -0.00125655   0.198743      -0.00125655  -0.00125655   0.00475513  -0.0112879
  7704.69      -0.001621   0.198379      -0.001621  -0.001621  -0.000986249  -0.0129348
  7705.02      -0.00194199   0.198058      -0.00194199  -0.00194199  -0.00423456   0.00148969
  7705.38      -0.00455979   0.19544      -0.00455979  -0.00455979   4.75983e-05   0.0303425
  7705.75      -0.00190729   0.198093      -0.00190729  -0.0019073   0.0178851   0.0347648
  7706.11       0.00851422   0.208514       0.00851422   0.00851422   0.0254607   0.0163169
  7706.47       0.0164753   0.216475       0.0164753   0.0164753   0.0296659   0.0106725
  7706.83       0.029844   0.229844       0.029844   0.029844   0.0331342  -0.00520046
  7707.2       0.0404976   0.240498       0.0404976   0.0404976   0.0258956  -0.0237568
  7707.56       0.0486442   0.248644       0.0486442   0.0486442   0.0158868  -0.0303512
  7707.91       0.0519202   0.25192       0.0519202   0.0519202   0.00407308  -0.0192552
  7708.28       0.051589   0.251589       0.051589   0.051589   0.00196523  -0.00937481
  7708.65       0.0533568   0.253357       0.0533568   0.0533568  -0.00277991  -0.0131375
  7708.98       0.0496375   0.249638       0.0496375   0.0496375  -0.0072573   0.0110637
  7709.29       0.0486831   0.248683       0.0486831   0.0486831   0.0043451   0.020325
  7709.6       0.0523054   0.252305       0.0523054   0.0523054   0.00522222  -0.0152822
  7709.9       0.0518843   0.251884       0.0518843   0.0518843  -0.00502286  -0.0295299
  7710.21       0.0492164   0.249216       0.0492164   0.0492164  -0.0129387  -0.00450403
  7710.51       0.0439788   0.243979       0.0439788   0.0439788  -0.00777482   0.0232748
  7710.82       0.0444582   0.244458       0.0444582   0.0444582   0.00130551   0.0314233
  7711.11       0.0447543   0.244754       0.0447543   0.0447543   0.0108906   0.00851255
  7711.42       0.0509163   0.250916       0.0509163   0.0509163   0.00635345  -0.0236354
  7711.73       0.0486744   0.248674       0.0486744   0.0486744  -0.00369243  -0.0100463
  7712.03       0.0486528   0.248653       0.0486528   0.0486528   0.000195094  -0.00044856
  7712.33       0.048793   0.248793       0.048793   0.048793  -0.00396516   0.0092026
  7712.64       0.0462143   0.246214       0.0462143   0.0462143   0.00585469   0.0325487
  7712.95       0.0524229   0.252423       0.0524229   0.0524229   0.016215   0.0336353
  7713.23       0.0557973   0.255797       0.0557973   0.0557973   0.0257332   0.0524232
  7713.54       0.0674768   0.267477       0.0674768   0.0674768   0.0468826   0.0590861
  7713.85       0.0847708   0.284771       0.0847708   0.0847708   0.0622484   0.0512836
  7714.16       0.106258       0.306258       0.106258       0.106258       0.0788323   0.0205096
  7714.47       0.13341       0.33341       0.13341       0.13341       0.0749028  -0.045777
  7714.78       0.152398       0.352398       0.152398       0.152398       0.0506337  -0.0603573
  7715.08       0.164145       0.364145       0.164145       0.164145       0.038266  -0.00133866
  7715.39       0.175702       0.375702       0.175702       0.175702       0.0498184   0.0176064
  7715.67       0.193687       0.393687       0.193687       0.193687       0.0487066  -0.0505913
  7715.97       0.204244       0.404244       0.204244       0.204244       0.0201719  -0.0735727
  7716.14       0.203108       0.403108       0.203108       0.203108       0.0143481   0.0833311
  7716.26       0.208304       0.408304       0.208304       0.208304       0.0437546   0.17007
  7716.37       0.213171       0.413171       0.213171       0.213171       0.0534643   0.127346
  7716.5       0.22135       0.42135       0.22135       0.22135       0.0748271   0.0654295
  7716.62       0.232102       0.432102       0.232102       0.232102       0.070018  -0.10764
  7716.73       0.237734       0.437734       0.237734       0.237734       0.0496393  -0.166972
  7716.87       0.244363       0.444363       0.244363       0.244363       0.0287759  -0.0415548
  7716.99       0.245072       0.445072       0.245072       0.245072       0.0390428   0.115425
  7717.1       0.253499       0.453499       0.253499       0.253499       0.0557853   0.0288353
  7717.23       0.258739       0.458739       0.258739       0.258739       0.0461074   0.123079
  7717.35       0.26498       0.46498       0.26498       0.26498       0.086432   0.0785474
  7717.46       0.278532       0.478532       0.278532       0.278532       0.0640948  -0.130516
  7717.59       0.280491       0.480491       0.280491       0.280491       0.0548471   0.101258
  7717.71       0.292134       0.492134       0.292134       0.292134       0.0892069   0.153645
  7717.84       0.302793       0.502793       0.302793       0.302793       0.0932584   0.0437142
  7717.96       0.315449       0.515449       0.315449       0.315449       0.100135       0.0308004
  7718.07       0.326024       0.526024       0.326024       0.326024       0.100404      -0.0220373
  7718.21       0.340148       0.540148       0.340148       0.340148       0.0947142  -0.0824568
  7718.33       0.350081       0.550081       0.350081       0.350081       0.0794601   0.0200266
  7718.44       0.358821       0.558821       0.358821       0.358821       0.0994205   0.0703344
  7718.57       0.374439       0.57444       0.37444       0.37444       0.0966921   0.000596105
  7718.69       0.383188       0.583188       0.383188       0.383188       0.0995707   0.0484495
  7718.81       0.39754       0.59754       0.39754       0.39754       0.107932       0.0947493
  7718.94       0.409415       0.609415       0.409415       0.409415       0.122595       0.176218
  7719.06       0.428311       0.628311       0.428311       0.428311       0.152163       0.0136959
  7719.17       0.444717       0.644717       0.444717       0.444717       0.125772      -0.104565
  7719.3       0.458874       0.658874       0.458874       0.458874       0.126754       0.153568
  7719.42       0.476659       0.676659       0.476659       0.476659       0.164471       0.117965
  7719.53       0.497689       0.697689       0.497689       0.497689       0.154594      -0.0917179
  7719.67       0.514689       0.714689       0.514689       0.514689       0.141909      -0.0632179
  7719.79       0.533592       0.733592       0.533592       0.533592       0.138599       0.12917
  7719.9       0.54726       0.74726       0.54726       0.54726       0.172264       0.299604
  7720.03       0.575969       0.775969       0.575969       0.575969       0.212302       0.128347
  7720.15       0.600972       0.800972       0.600972       0.600972       0.204736      -0.11625
  7720.27       0.623672       0.823672       0.623672       0.623672       0.185216      -0.102069
  7720.4       0.64598       0.84598       0.64598       0.64598       0.179933      -0.0900581
  7720.52       0.668476       0.868476       0.668476       0.668476       0.162791      -0.0234742
  7720.65       0.686515       0.886515       0.686515       0.686515       0.174088       0.165155
  7720.77       0.711997       0.911998       0.711997       0.711997       0.20408       0.163054
  7720.88       0.734065       0.934065       0.734065       0.734065       0.212079       0.0757843
  7721.01       0.764381       0.964381       0.764381       0.764381       0.222799      -0.15778
  7721.13       0.790656       0.990656       0.790656       0.790656       0.172003      -0.0919823
  7721.25       0.804458        1.00446       0.804458       0.804458       0.201367       0.313725
  7721.38       0.840192        1.04019       0.840192       0.840192       0.24918       0.193617
  7721.5       0.867749        1.06775       0.867687       0.867687       0.250545      -0.125369
  7721.61       0.898569        2.23354       0.898682        2.03365       0.219969      -0.223007
  7721.74       0.921422        2.21655       0.921742        2.01687       0.196132       0.169045
  7721.86       0.947602        2.2015       0.948108        2.002       0.26223       0.0140751
  7721.97       0.981735        2.18732       0.982416        1.98801       0.199369      -0.526376
  7722.1       0.99585        2.17101       0.996735        1.9719       0.134847       0.0208328
  7722.23        1.01572        2.15584        1.01679        1.95692       0.204619       0.288571
  7722.36        1.04782        2.13958        1.04911        1.94086       0.208144      -0.174131
  7722.48        1.06838        2.1248        1.06985        1.92627       0.160564      -0.266157
  7722.59        1.08556        2.11099        1.08721        1.91265       0.145597      -0.206094
  7722.72        1.10405        2.09527        1.10591        1.89713       0.110071      -0.130534
  7722.85        1.1134        2.08076        1.11545        1.88281       0.112572       0.129761
  7722.96        1.13039        2.06756        1.13262        1.86978       0.140435       0.170082
  7723.05        1.14219        2.05667        1.14457        1.85905       0.147439      -0.0866891
  7723.21        1.16799        2.03789        1.17061        1.84052       0.118329      -0.11727
  7723.41        1.1842        2.01581        1.18713        1.81874       0.105808       0.0146777
  7723.6        1.20925        1.9936        1.21249        1.79684       0.124053      -0.0305293
  7723.8        1.23308        1.97171        1.23663        1.77526       0.0937795  -0.179207
  7724        1.24648        1.94982        1.25035        1.75368       0.0529081  -0.209075
  7724.2        1.25413        1.92848        1.25831        1.73265       0.0105678  -0.126501
  7724.4        1.25067        1.90746        1.25515        1.71194       0.00281368   0.00512409
  7724.59        1.25524        1.88696        1.26003        1.69176       0.0125867  -0.0402224
  7724.79        1.25561        1.86668        1.26072        1.67178      -0.0129937  -0.105794
  7725.01        1.24984        1.8445        1.25528        1.64994      -0.0314238  -0.0263896
  7725.72        1.22626        1.77473        1.23283        1.5813      -0.0376416  -0.00693894
  7726.51        1.19341        1.70279        1.20121        1.51059      -0.0418252   0.00225755
  7727.3        1.16022        1.63457        1.16927        1.44362      -0.0340769   0.0050112
  7728.07        1.14029        1.57335        1.15053        1.38359      -0.0340128   0.00330018
  7728.83        1.10825        1.51624        1.1197        1.32769      -0.0290343   0.0142869
  7729.59        1.09595        1.46318        1.1086        1.27583      -0.0121966   0.0169368
  7730.35        1.08967        1.41415        1.10351        1.22799      -0.00323954   0.00698297
  7731.15        1.09092        1.36683        1.106        1.18192      -0.00134507   0.00105908
  7731.91        1.08758        1.325        1.10386        1.14128      -0.00159055  -0.0045497
  7732.68        1.08848        1.2863        1.10597        1.10379      -0.00831521  -0.00449236
  7733.44        1.07485        1.25124        1.09354        1.06993      -0.00846835   0.00564978
  7734.21        1.07548        1.21888        1.09538        1.03878       0.000357193  -0.000753373
  7734.98        1.0754        1.19001        1.0965        1.01111      -0.00962478  -0.00996482
  7735.77        1.06046        1.16281        1.08281       0.985167      -0.0151979   0.00560693
  7736.54        1.05164        1.13962        1.0752       0.963168      -0.000861146   0.00606045
  7737.31        1.05914        1.11887        1.0839       0.943631      -0.00590116  -0.0127454
  7738.08        1.04256        1.10065        1.06853       0.926619      -0.0204763  -0.00749709
  7738.84        1.0277        1.08485        1.05488       0.91202      -0.0174092   0.00558701
  7739.62        1.01579        1.07115        1.04417       0.899535      -0.0118835   0.00199504
  7740.39        1.00936        1.05955        1.03895       0.889149      -0.0143289  -0.00572377
  7741.16       0.993649        1.0499        1.02446       0.880709      -0.0207267  -0.00645518
  7741.95       0.97694        1.0419        1.00899       0.873956      -0.0244248  -0.000199989
  7744.45       0.913267        1.02746       0.949246       0.863437      -0.0213849   0.00166778
  7746.97       0.869652        1.02579       0.909583       0.865718      -0.0160575   0.00177859
  7749.45       0.832963        1.03205       0.876795       0.875879      -0.0124901   0.00112585
  7751.94       0.807626        1.04145       0.855355       0.889182      -0.0104665   0.00102657
  7754.45       0.78061        1.05061       0.832296       0.902299      -0.00735522   0.00205656
  7756.95       0.770747        1.05881       0.82635       0.914417      -0.000154892   0.00255745
  7759.43       0.779839        1.06615       0.839338       0.925644       0.00536808   0.00148618
  7761.95       0.797576        1.07276       0.861028       0.936215       0.00727305   0.00109022
  7764.47       0.816481        1.07859       0.883891       0.946001       0.0108606   0.000710042
  7766.97       0.852075        1.0836       0.923406       0.954928       0.010836   6.90926e-05
  7769.46       0.870596        1.08787       0.945848       0.963118       0.0112057  -6.89704e-05
  7771.99       0.90835        1.09146       0.987567       0.970674       0.0104897  -0.00134305
  7774.49       0.923317        1.09432        1.00646       0.977466       0.00445546  -0.00169001
  7777       0.930671        1.09653        1.01776       0.98361       0.0020227  -0.00057553
  7780.56       0.935603        1.09856        1.02829       0.991239       0.00095969  -0.000854537
  7784.15       0.937535        1.09936        1.03585       0.997673      -0.00408894  -0.000560926
  7787.69       0.906445        1.099        1.01033        1.00288      -0.00304027   0.000695353
  7791.28       0.915849        1.09754        1.02537        1.00706       0.000871011   0.00018305
  7794.86       0.912689        1.09507        1.02783        1.01021      -0.00172799  -0.000620783
  7798.44       0.903487        1.09165        1.02424        1.0124      -0.00357007  -0.000215212
  7802.02       0.887152        1.08735        1.01352        1.01372      -0.0032674   5.21609e-05
  7805.61       0.880034        1.08222        1.01206        1.01424      -0.00319566   8.17551e-05
  7809.2       0.864179        1.07636        1.00184        1.01402      -0.00267966   0.000461353
  7812.81       0.860753        1.06982        1.00407        1.01314       0.000123779  -1.53465e-05
  7816.38       0.865067        1.06275        1.014        1.01168      -0.0027898  -0.000516186
  7819.99       0.840709        1.05508       0.995311        1.00968      -0.00358501   7.20716e-05
  7823.6       0.839169        1.04696       0.999442        1.00724      -0.00226916  -0.000119684
  7827.22       0.824305        1.03846       0.990259        1.00442      -0.00445021   5.51596e-05
  7830.81       0.807087        1.02973       0.978681        1.00132      -0.00187151   0.000737736
  7834.44       0.810802        1.0207       0.988086       0.99798       0.00087255  -0.000131773
  7838.06       0.81341        1.01152       0.996382       0.994488      -0.00282634  -0.000373603
  7841.69       0.790305        1.00224       0.978977       0.990916      -0.00183682   0.000759998
  7845.32       0.800075       0.992973       0.994447       0.987345       0.00269125   0.0012474