File: Dynamic XAS/Dynamic XAS Energy analyzed data/ESweep_0_5 Hz/Same Eo/Normalized Spectra/Ir0_5Hz_ReaddMean_VPhsCorrect_11_248_mV_.csv.nor
# XDI/1.0 Athena/0.9.26
# Element.edge:                  K
# Element.symbol:                Co
# Column.1:                      energy eV
# Column.2:                      norm
# Column.3:                      nbkg
# Column.4:                      flat
# Column.5:                      fbkg
# Column.6:                      nder
# Column.7:                      nsec
# Athena.e0:                     7721.54
# Athena.eshift:                 0
# Athena.rbkg:                   1.0
# Athena.importance:             1
# Athena.standard:               None
# Athena.bkg_kweight:            3
# Athena.edge_step:              1.1947
# Athena.fixed_step:             no
# Athena.pre_edge_range:         -82.964 -19.904
# Athena.pre_edge_line:          0.235193 + 0.000184057 * E
# Athena.normalization_range:    45 125.256
# Athena.post_edge_polynomial:   15.7087 - 0.00166516 * E + 0 * E^2 + 0 * E^3
# Athena.spline_range_energy:    0.000 125.180
# Athena.clamps:                 0 24
# Athena.spline_range_k:         0.000 5.732
# Athena.kweight:                2
# Athena.window:                 hanning
# Athena.phase_correction:       no
# Athena.k_range:                .4 5.35
# Athena.dk:                     .5
# Athena.r_range:                .4 5.1
# Athena.dr:                     .5
# Athena.window:                 hanning
# Athena.plot_multiplier:        1
# Athena.y_offset:               0.2
# ///
#------------------------
#   e         norm        nbkg        flat        fbkg        nder        nsec
  7600.07      -0.214794      -0.014794  -0.214794      -0.214794       0.0121351  -0.000505086
  7610.64      -0.086477   0.113523      -0.086477  -0.086477   0.00679437  -0.000374584
  7624.56      -0.0484068   0.151593      -0.0484068  -0.0484068   0.00296195  -0.000205322
  7637.2      -0.00781064   0.192189      -0.00781064  -0.00781064   0.00134121  -0.000130587
  7649.7      -0.0146847   0.185315      -0.0146847  -0.0146847  -0.000321411   9.3503e-05
  7662.2      -0.0158456   0.184154      -0.0158456  -0.0158456   0.00367869   1.97276e-05
  7674.73       0.0774077   0.277408       0.0774077   0.0774077   0.000172449  -0.000282026
  7687.33      -0.0115116   0.188488      -0.0115116  -0.0115116  -0.00340919   8.91517e-06
  7700.01      -0.00876627   0.191234      -0.00876627  -0.00876627   0.000397798   0.000941231
  7700.39      -0.00631755   0.193682      -0.00631755  -0.00631755   0.00888047   0.00723834
  7700.72      -0.00247002   0.19753      -0.00247002  -0.00247002   0.00552978  -0.0210388
  7701.07      -0.00254071   0.197459      -0.00254071  -0.00254071  -0.00548906  -0.00489674
  7701.43      -0.0063947   0.193605      -0.0063947  -0.0063947   0.00202861   0.0158591
  7701.8      -0.00106592   0.198934      -0.00106592  -0.00106592   0.00604047  -0.00964439
  7702.15      -0.00203952   0.19796      -0.00203952  -0.00203952  -0.004925  -0.0170977
  7702.52      -0.00459714   0.195403      -0.00459714  -0.00459714  -0.00621861   0.00343254
  7702.88      -0.00654179   0.193458      -0.00654179  -0.00654179  -0.00243983   0.00703018
  7703.24      -0.0063709   0.193629      -0.0063709  -0.0063709  -0.00110767   0.00798086
  7703.6      -0.00734042   0.19266      -0.00734042  -0.00734042   0.00331436   0.0139215
  7703.96      -0.00398787   0.196012      -0.00398787  -0.00398787   0.00890192   0.000833089
  7704.32      -0.000886526   0.199113      -0.000886526  -0.000886526   0.00391835  -0.016393
  7704.69      -0.00114315   0.198857      -0.00114315  -0.00114315  -0.00299937  -0.0126153
  7705.02      -0.00297109   0.197029      -0.00297109  -0.00297109  -0.0048493   0.0026118
  7705.38      -0.00450856   0.195491      -0.00450856  -0.00450856  -0.00118678   0.0290919
  7705.75      -0.00383626   0.196164      -0.00383626  -0.00383626   0.0163587   0.0366779
  7706.11       0.00744964   0.20745       0.00744964   0.00744964   0.0256247   0.0171513
  7706.47       0.0146648   0.214665       0.0146648   0.0146648   0.0287419   0.0101341
  7706.83       0.0281151   0.228115       0.0281151   0.0281151   0.0329111  -0.00378475
  7707.2       0.0385254   0.238525       0.0385254   0.0385254   0.025998  -0.0233445
  7707.56       0.0469896   0.24699       0.0469896   0.0469896   0.0159631  -0.0286103
  7707.91       0.0500028   0.250003       0.0500028   0.0500028   0.00542714  -0.0146572
  7708.28       0.0509134   0.250913       0.0509134   0.0509134   0.00536593  -0.00836382
  7708.65       0.0539253   0.253925       0.0539253   0.0539253  -0.000686813  -0.0203539
  7708.98       0.0504313   0.250431       0.0504313   0.0504313  -0.00892254   0.00535917
  7709.29       0.0481792   0.248179       0.0481792   0.0481792   0.00276449   0.0276085
  7709.6       0.0521287   0.252129       0.0521287   0.0521287   0.0080291  -0.0118862
  7709.9       0.053101   0.253101       0.053101   0.053101  -0.00452176  -0.0358183
  7710.21       0.0493478   0.249348       0.0493478   0.0493478  -0.0139992  -0.00672041
  7710.51       0.0445475   0.244548       0.0445475   0.0445475  -0.00862793   0.016686
  7710.82       0.0440675   0.244067       0.0440675   0.0440675  -0.00378735   0.0270748
  7711.11       0.0422979   0.242298       0.0422979   0.0422979   0.0074545   0.0157801
  7711.42       0.048488   0.248488       0.048488   0.048488   0.00557023  -0.0210252
  7711.73       0.0457347   0.245735       0.0457347   0.0457347  -0.00551805  -0.0123295
  7712.03       0.0451054   0.245105       0.0451054   0.0451054  -0.00198776  -0.00853843
  7712.33       0.0445261   0.244526       0.0445261   0.0445261  -0.0107094   0.00820409
  7712.64       0.0385192   0.238519       0.0385192   0.0385192   0.00305776   0.047723
  7712.95       0.0464219   0.246422       0.0464219   0.0464219   0.0188788   0.0345162
  7713.23       0.0496765   0.249677       0.0496765   0.0496765   0.0234568   0.0401091
  7713.54       0.0601442   0.260144       0.0601442   0.0601442   0.0423427   0.0603574
  7713.85       0.0758443   0.275844       0.0758443   0.0758443   0.0607577   0.0494929
  7714.16       0.0979963   0.297996       0.0979963   0.0979963   0.0731767   0.00760015
  7714.47       0.120994       0.320994       0.120994       0.120994       0.065447  -0.0394565
  7714.78       0.138312       0.338312       0.138312       0.138312       0.0488715  -0.0464059
  7715.08       0.150659       0.350659       0.150659       0.150659       0.0372786  -0.0076356
  7715.39       0.161014       0.361014       0.161014       0.161014       0.0442214   0.00745725
  7715.67       0.176883       0.376883       0.176883       0.176883       0.0417008  -0.0249423
  7715.97       0.185451       0.385451       0.185451       0.185451       0.0296053  -0.0439565
  7716.14       0.190708       0.390708       0.190708       0.190708       0.0211731  -0.0191198
  7716.26       0.191443       0.391443       0.191443       0.191443       0.0241944   0.153161
  7716.37       0.196273       0.396273       0.196273       0.196273       0.0564002   0.158772
  7716.5       0.205205       0.405205       0.205205       0.205205       0.0629348  -0.022284
  7716.62       0.212196       0.412195       0.212196       0.212196       0.0507624  -0.0428465
  7716.73       0.217083       0.417083       0.217083       0.217083       0.0529087   0.0162835
  7716.87       0.225264       0.425264       0.225264       0.225264       0.0547844  -0.0489512
  7716.99       0.231053       0.431053       0.231053       0.231053       0.0404261  -0.0525255
  7717.1       0.234724       0.434724       0.234724       0.234724       0.0424934   0.0539186
  7717.23       0.241464       0.441464       0.241464       0.241464       0.0536362   0.162421
  7717.35       0.248079       0.448079       0.248079       0.248079       0.0829362   0.0280306
  7717.46       0.260456       0.460456       0.260456       0.260456       0.0600552  -0.240053
  7717.59       0.262612       0.462612       0.262612       0.262612       0.0248434   0.101165
  7717.71       0.266617       0.466617       0.266617       0.266617       0.0851441   0.328689
  7717.84       0.283898       0.483898       0.283898       0.283898       0.107016      -0.0470116
  7717.96       0.293371       0.493371       0.293371       0.293371       0.0733912  -0.024462
  7718.07       0.300925       0.500925       0.300925       0.300925       0.101341       0.148911
  7718.21       0.318301       0.518301       0.318301       0.318301       0.110023      -0.130303
  7718.33       0.328871       0.528871       0.328871       0.328871       0.0682435  -0.205909
  7718.44       0.334338       0.534338       0.334338       0.334338       0.0616348   0.113137
  7718.57       0.343972       0.543972       0.343972       0.343972       0.0959621   0.146937
  7718.69       0.358521       0.558521       0.358521       0.358521       0.0986628   0.0201961
  7718.81       0.366861       0.566861       0.366861       0.366861       0.100648       0.125165
  7718.94       0.382978       0.582978       0.382978       0.382978       0.129078       0.226741
  7719.06       0.39926       0.59926       0.39926       0.39926       0.157559      -0.0265989
  7719.17       0.419532       0.619532       0.419532       0.419532       0.122907      -0.253606
  7719.3       0.429126       0.629126       0.429126       0.429126       0.0959333   0.188043
  7719.42       0.443707       0.643707       0.443707       0.443707       0.170294       0.271704
  7719.53       0.469316       0.669316       0.469316       0.469316       0.160056      -0.213905
  7719.67       0.483081       0.683081       0.483081       0.483081       0.117673       0.0181056
  7719.79       0.499087       0.699087       0.499087       0.499087       0.164636       0.270778
  7719.9       0.52177       0.72177       0.52177       0.52177       0.181306       0.0200091
  7720.03       0.543688       0.743688       0.543688       0.543688       0.169558       0.174265
  7720.15       0.564669       0.764669       0.564669       0.564669       0.225395       0.140965
  7720.27       0.596205       0.796205       0.596205       0.596205       0.202403      -0.363051
  7720.4       0.613853       0.813853       0.613853       0.613853       0.137173      -0.162176
  7720.52       0.630361       0.830361       0.630361       0.630361       0.162022       0.150931
  7720.65       0.654196       0.854196       0.654196       0.654196       0.174755       0.277655
  7720.77       0.67405       0.87405       0.67405       0.67405       0.231435       0.290156
  7720.88       0.70812       0.90812       0.70812       0.70812       0.242361      -0.157638
  7721.01       0.733913       0.933913       0.733913       0.733913       0.192499      -0.156664
  7721.13       0.757015       0.957015       0.757015       0.757015       0.202569       0.0382042
  7721.25       0.781112       0.981112       0.781112       0.781112       0.2014       0.049294
  7721.38       0.80656        1.00656       0.80656       0.80656       0.214695       0.251164
  7721.5       0.835644        1.03564       0.835583       0.835583       0.265196       0.197337
  7721.61       0.86835        2.27067       0.868462        2.07078       0.260675      -0.101916
  7721.74       0.899249        2.25312       0.899565        2.05343       0.240329      -0.0484719
  7721.86       0.928433        2.23756       0.928931        2.03806       0.248557      -0.129794
  7721.97       0.956417        2.22292       0.957089        2.02359       0.210476      -0.313062
  7722.1       0.979368        2.20607       0.980241        2.00694       0.172796      -0.0317703
  7722.23       0.999962        2.1904        1.00102        1.99146       0.20247       0.184335
  7722.36        1.0308        2.17359        1.03206        1.97486       0.219617      -0.026701
  7722.48        1.05552        2.15833        1.05698        1.95978       0.195715      -0.263332
  7722.59        1.07679        2.14407        1.07842        1.9457       0.157734      -0.333913
  7722.72        1.09417        2.12782        1.096        1.92966       0.113906      -0.115983
  7722.85        1.10561        2.11283        1.10763        1.91486       0.12839       0.275896
  7722.96        1.12421        2.09919        1.12641        1.90139       0.178465       0.194608
  7723.05        1.14219        2.08795        1.14453        1.89029       0.168285      -0.190376
  7723.21        1.16713        2.06855        1.16972        1.87114       0.129919      -0.117762
  7723.41        1.18831        2.04573        1.1912        1.84862       0.126479      -0.00437204
  7723.6        1.21645        2.02278        1.21965        1.82598       0.128214      -0.0610222
  7723.8        1.23883        2.00017        1.24233        1.80367       0.102437      -0.135617
  7724        1.25712        1.97756        1.26093        1.78137       0.0743742  -0.180271
  7724.2        1.26843        1.95551        1.27254        1.75962       0.0306887  -0.157036
  7724.4        1.26927        1.93379        1.27369        1.73822       0.0121878  -0.0551883
  7724.59        1.27323        1.91262        1.27796        1.71735       0.00894451  -0.0478673
  7724.79        1.27279        1.89167        1.27782        1.6967      -0.00662406  -0.0975887
  7725.01        1.27048        1.86876        1.27584        1.67412      -0.0316524  -0.0382369
  7725.72        1.24322        1.79668        1.2497        1.60316      -0.0423373  -0.0103209
  7726.51        1.20701        1.72237        1.2147        1.53006      -0.0471235   0.000125616
  7727.3        1.16882        1.65189        1.17774        1.46081      -0.0421389   0.00447822
  7728.07        1.14132        1.58865        1.15142        1.39875      -0.0401419   0.00841501
  7728.83        1.10748        1.52966        1.11876        1.34094      -0.0292808   0.0210139
  7729.59        1.09661        1.47485        1.10907        1.28732      -0.00805375   0.0169275
  7730.35        1.09521        1.4242        1.10885        1.23784      -0.00350018   0.00392917
  7731.15        1.09117        1.37533        1.10604        1.1902      -0.00194782   0.0050783
  7731.91        1.09218        1.33212        1.10823        1.14817       0.00440674  -0.00315722
  7732.68        1.09792        1.29215        1.11516        1.10939      -0.00678468  -0.00946566
  7733.44        1.08179        1.25594        1.10021        1.07436      -0.0100852   0.00286685
  7734.21        1.08244        1.22252        1.10206        1.04214      -0.00238406  -0.00162934
  7734.98        1.07813        1.19271        1.09893        1.0135      -0.0125862  -0.00875281
  7735.77        1.06279        1.16462        1.08482       0.986657      -0.0160472   0.00740256
  7736.54        1.05305        1.14067        1.07627       0.963885      -0.00101601   0.00728423
  7737.31        1.06123        1.11925        1.08564       0.943657      -0.00487319  -0.0128855
  7738.08        1.04555        1.10044        1.07115       0.92604      -0.0208468  -0.0082709
  7738.84        1.02923        1.08413        1.05602       0.910915      -0.017569   0.00689846
  7739.62        1.01853        1.07        1.04651       0.897975      -0.0102369   0.00204786
  7740.39        1.01343        1.05803        1.0426       0.887203      -0.0144071  -0.00767903
  7741.16       0.996272        1.04807        1.02664       0.878443      -0.022101  -0.0064729
  7741.95       0.97886        1.03983        1.01045       0.871426      -0.0245307   0.000133637
  7744.45       0.915542        1.02497       0.951006       0.860433      -0.0216612   0.00167907
  7746.97       0.870186        1.02331       0.909546       0.862667      -0.0161068   0.00173113
  7749.45       0.834991        1.02985       0.878196       0.873052      -0.0130039   0.00105099
  7751.94       0.805609        1.03964       0.852655       0.886687      -0.0108876   0.00102229
  7754.45       0.780532        1.04919       0.831479       0.900134      -0.00789038   0.00194584
  7756.95       0.766046        1.05775       0.820854       0.912556      -0.00113114   0.00264066
  7759.43       0.774904        1.06541       0.833552       0.924063       0.0052469   0.00179605
  7761.95       0.79227        1.07235       0.854814       0.934896       0.0078455   0.00121291
  7764.47       0.81443        1.07848       0.880876       0.944923       0.0113575   0.000644159
  7766.97       0.849262        1.08376       0.919573       0.954069       0.0110779   3.47455e-06
  7769.46       0.869753        1.08828       0.943928       0.962458       0.0113749   2.79813e-05
  7771.99       0.906387        1.09211       0.984471       0.970198       0.0112184  -0.00124147
  7774.49       0.926137        1.0952        1.00809       0.977153       0.00513526  -0.00182151
  7777       0.932115        1.09761        1.01795       0.983444       0.00209266  -0.000660031
  7780.56       0.938847        1.0999        1.0302       0.991252       0.00112624  -0.000866658
  7784.15       0.94017        1.10093        1.03708       0.997837      -0.00410568  -0.000601181
  7787.69       0.90957        1.10077        1.01196        1.00316      -0.00316078   0.000675398
  7791.28       0.917624        1.09949        1.02557        1.00744       0.000711938   0.000235997
  7794.86       0.914674        1.09716        1.02816        1.01065      -0.00146893  -0.000551427
  7798.44       0.907115        1.09387        1.02614        1.01289      -0.00323297  -0.000299796
  7802.02       0.891548        1.08968        1.01611        1.01424      -0.00361337  -2.37225e-05
  7805.61       0.881178        1.08463        1.01131        1.01477      -0.00340325   0.000182843
  7809.2       0.867082        1.07885        1.00277        1.01454      -0.00229891   0.000487909
  7812.81       0.864638        1.07236        1.00591        1.01363       0.000107252  -8.84507e-05
  7816.38       0.867852        1.06534        1.01465        1.01214      -0.00293372  -0.000536934
  7819.99       0.843559        1.05771       0.99595        1.0101      -0.00375062   5.31783e-05
  7823.6       0.840758        1.04962       0.998738        1.0076      -0.00254956  -8.3561e-05
  7827.22       0.825128        1.04115       0.988709        1.00473      -0.00435468   8.346e-05
  7830.81       0.809365        1.03244       0.978503        1.00158      -0.0019479   0.000723554
  7834.44       0.811074        1.02342       0.985822       0.998172       0.000865761  -0.000100313
  7838.06       0.815638        1.01427       0.995992       0.994623      -0.00267477  -0.000356545
  7841.69       0.791677        1.00502       0.97765       0.990997      -0.0017199   0.00080384
  7845.32       0.803151       0.995787       0.994743       0.987379       0.00316111   0.00134463