File: Dynamic XAS/Dynamic XAS Energy analyzed data/ESweep_0_5 Hz/Same Eo/Normalized Spectra/Ir0_5Hz_ReaddMean_VPhsCorrect_45_-134_mV_.csv.nor
# XDI/1.0 Athena/0.9.26
# Element.edge:                  K
# Element.symbol:                Co
# Column.1:                      energy eV
# Column.2:                      norm
# Column.3:                      nbkg
# Column.4:                      flat
# Column.5:                      fbkg
# Column.6:                      nder
# Column.7:                      nsec
# Athena.e0:                     7721.54
# Athena.eshift:                 0
# Athena.rbkg:                   1.0
# Athena.importance:             1
# Athena.standard:               None
# Athena.bkg_kweight:            3
# Athena.edge_step:              1.19254
# Athena.fixed_step:             no
# Athena.pre_edge_range:         -82.964 -19.904
# Athena.pre_edge_line:          -0.039419 + 0.00021981 * E
# Athena.normalization_range:    45 125.256
# Athena.post_edge_polynomial:   15.6112 - 0.00165263 * E + 0 * E^2 + 0 * E^3
# Athena.spline_range_energy:    0.000 125.180
# Athena.clamps:                 0 24
# Athena.spline_range_k:         0.000 5.732
# Athena.kweight:                2
# Athena.window:                 hanning
# Athena.phase_correction:       no
# Athena.k_range:                .4 5.35
# Athena.dk:                     .5
# Athena.r_range:                .4 5.1
# Athena.dr:                     .5
# Athena.window:                 hanning
# Athena.plot_multiplier:        1
# Athena.y_offset:               0.2
# ///
#------------------------
#   e         norm        nbkg        flat        fbkg        nder        nsec
  7600.07      -0.21447      -0.0144697  -0.21447      -0.21447       0.0124896  -0.000532153
  7610.64      -0.0824042   0.117596      -0.0824042  -0.0824042   0.00686265  -0.000395443
  7624.56      -0.0464102   0.15359      -0.0464102  -0.0464102   0.00280565  -0.00021257
  7637.2      -0.00788895   0.192111      -0.00788895  -0.00788895   0.00121701  -0.000125223
  7649.7      -0.0158108   0.184189      -0.0158108  -0.0158108  -0.000342844   0.000105884
  7662.2      -0.0164597   0.18354      -0.0164597  -0.0164597   0.00386401   2.07675e-05
  7674.73       0.0809208   0.280921       0.0809208   0.0809208   0.00017705  -0.000294731
  7687.33      -0.0120101   0.18799      -0.0120101  -0.0120101  -0.00354316   1.0634e-05
  7700.01      -0.00863974   0.19136      -0.00863974  -0.00863974   0.000445845   0.000893152
  7700.39      -0.00618869   0.193811      -0.00618869  -0.00618869   0.00811873   0.00721436
  7700.72      -0.00288356   0.197116      -0.00288356  -0.00288356   0.00556083  -0.0184772
  7701.07      -0.00239065   0.197609      -0.00239065  -0.00239065  -0.00450122  -0.00807749
  7701.43      -0.00610193   0.193898      -0.00610193  -0.00610193  -0.000214575   0.0124777
  7701.8      -0.00254664   0.197453      -0.00254664  -0.00254664   0.00457004  -0.00380454
  7702.15      -0.00280693   0.197193      -0.00280693  -0.00280693  -0.00295765  -0.012617
  7702.52      -0.00466728   0.195333      -0.00466728  -0.00466728  -0.00447633   0.00176335
  7702.88      -0.00604779   0.193952      -0.00604779  -0.00604779  -0.00168098   0.00598907
  7703.24      -0.00588935   0.194111      -0.00588935  -0.00588935  -0.000122273   0.00376033
  7703.6      -0.00613595   0.193864      -0.00613595  -0.00613595   0.00103022   0.00978364
  7703.96      -0.00514862   0.194851      -0.00514862  -0.00514862   0.00691216   0.0052378
  7704.32      -0.00112463   0.198875      -0.00112463  -0.00112463   0.00482762  -0.0143995
  7704.69      -0.00164377   0.198356      -0.00164377  -0.00164377  -0.00354188  -0.0118569
  7705.02      -0.00358624   0.196414      -0.00358624  -0.00358624  -0.00341294   0.0092861
  7705.38      -0.00401235   0.195988      -0.00401234  -0.00401234   0.00290267   0.0277525
  7705.75      -0.00147019   0.19853      -0.00147019  -0.00147019   0.0168186   0.0296535
  7706.11       0.00828207   0.208282       0.00828207   0.00828207   0.0245794   0.018613
  7706.47       0.0162761   0.216276       0.0162761   0.0162761   0.0302572   0.010516
  7706.83       0.030037   0.230037       0.030037   0.030037   0.0321404  -0.00688418
  7707.2       0.0395779   0.239578       0.0395779   0.0395779   0.0252662  -0.020729
  7707.56       0.0483802   0.24838       0.0483802   0.0483802   0.0170911  -0.0287953
  7707.91       0.0518664   0.251866       0.0518664   0.0518664   0.00456233  -0.0204722
  7708.28       0.0516788   0.251679       0.0516788   0.0516788   0.00228971  -0.00794395
  7708.65       0.0535401   0.25354       0.0535401   0.0535401  -0.0012447  -0.0162835
  7708.98       0.050805   0.250805       0.050805   0.050805  -0.00914131   0.00572289
  7709.29       0.0476531   0.247653       0.0476531   0.0476531   0.00244084   0.0267189
  7709.6       0.0523037   0.252304       0.0523037   0.0523037   0.00726408  -0.0115162
  7709.9       0.052106   0.252106       0.052106   0.052106  -0.00461861  -0.0344402
  7710.21       0.0494633   0.249463       0.0494633   0.0494633  -0.0139166  -0.00556757
  7710.51       0.043603   0.243603       0.043603   0.043603  -0.0080204   0.026749
  7710.82       0.0445548   0.244555       0.0445548   0.0445548   0.00245376   0.0351507
  7711.11       0.0450605   0.24506       0.0450605   0.0450605   0.0128591   0.00670413
  7711.42       0.0521802   0.25218       0.0521802   0.0521802   0.00642931  -0.0318342
  7711.73       0.0490274   0.249027       0.0490274   0.0490274  -0.0067826  -0.00967535
  7712.03       0.0480225   0.248022       0.0480225   0.0480225   0.000498321   0.00862237
  7712.33       0.0493304   0.24933       0.0493304   0.0493303  -0.0015402   0.0118016
  7712.64       0.0470753   0.247075       0.0470753   0.0470753   0.00775632   0.0291551
  7712.95       0.0541393   0.254139       0.0541393   0.0541393   0.016536   0.0290584
  7713.23       0.056848   0.256848       0.056848   0.056848   0.0249299   0.0531696
  7713.54       0.0687232   0.268723       0.0687232   0.0687232   0.0476402   0.0649699
  7713.85       0.0862896   0.28629       0.0862896   0.0862896   0.0650813   0.0510873
  7714.16       0.109269       0.309269       0.109269       0.109269       0.0794676   0.0144337
  7714.47       0.135321       0.335321       0.135321       0.135321       0.0739869  -0.0462845
  7714.78       0.154845       0.354845       0.154845       0.154845       0.0509563  -0.0609804
  7715.08       0.166252       0.366252       0.166252       0.166252       0.0369718  -0.00132054
  7715.39       0.177361       0.377361       0.177361       0.177361       0.0501521   0.0212256
  7715.67       0.195992       0.395992       0.195992       0.195992       0.0495585  -0.0497604
  7715.97       0.206402       0.406402       0.206402       0.206402       0.0209925  -0.0661372
  7716.14       0.205795       0.405795       0.205795       0.205795       0.0186724   0.104668
  7716.26       0.211686       0.411686       0.211686       0.211686       0.0506135   0.159954
  7716.37       0.217436       0.417436       0.217436       0.217436       0.0554618   0.0820442
  7716.5       0.225219       0.425219       0.225219       0.225219       0.0706323   0.055472
  7716.62       0.235306       0.435306       0.235306       0.235306       0.0694962  -0.123215
  7716.73       0.241481       0.441481       0.241481       0.241481       0.0418001  -0.159157
  7716.87       0.245631       0.445631       0.245631       0.245631       0.0301844  -0.013948
  7716.99       0.249178       0.449178       0.249178       0.249178       0.0382433   0.073692
  7717.1       0.25458       0.45458       0.25458       0.25458       0.0474283   0.0921102
  7717.23       0.260798       0.460798       0.260798       0.260798       0.0608103   0.219386
  7717.35       0.269722       0.469722       0.269722       0.269722       0.102055      -0.0243507
  7717.46       0.284169       0.484169       0.284169       0.284169       0.055234  -0.213773
  7717.59       0.283088       0.483088       0.283088       0.283088       0.0503224   0.145033
  7717.71       0.296649       0.496649       0.296649       0.296649       0.0912021   0.128303
  7717.84       0.305889       0.505889       0.305889       0.305889       0.0823981   0.0564669
  7717.96       0.317248       0.517248       0.317248       0.317248       0.105319       0.194707
  7718.07       0.330323       0.530323       0.330323       0.330323       0.12757      -0.0572289
  7718.21       0.34863       0.54863       0.34863       0.34863       0.0912405  -0.287372
  7718.33       0.353498       0.553498       0.353498       0.353498       0.0545777   0.0789361
  7718.44       0.361456       0.561456       0.361456       0.361456       0.10979       0.259882
  7718.57       0.380397       0.580397       0.380397       0.380397       0.118249      -0.0609066
  7718.69       0.391255       0.591255       0.391255       0.391255       0.094442  -0.0999455
  7718.81       0.402307       0.602307       0.402307       0.402307       0.0950614   0.159425
  7718.94       0.414355       0.614355       0.414355       0.414355       0.133182       0.31405
  7719.06       0.435736       0.635736       0.435736       0.435736       0.173888      -0.0211578
  7719.17       0.454697       0.654697       0.454697       0.454697       0.128274      -0.247832
  7719.3       0.466906       0.666906       0.466906       0.466906       0.113665       0.0639876
  7719.42       0.48334       0.68334       0.48334       0.48334       0.144399       0.13084
  7719.53       0.500984       0.700984       0.500984       0.500984       0.144543       0.0324623
  7719.67       0.518898       0.718898       0.518898       0.518898       0.152384      -0.000122302
  7719.79       0.539538       0.739538       0.539538       0.539538       0.144512       0.11777
  7719.9       0.552858       0.752858       0.552858       0.552858       0.18006       0.258932
  7720.03       0.583832       0.783832       0.583832       0.583832       0.208209       0.162266
  7720.15       0.605535       0.805535       0.605535       0.605535       0.221113      -0.0709056
  7720.27       0.635352       0.835352       0.635352       0.635352       0.191688      -0.276939
  7720.4       0.652115       0.852115       0.652115       0.652115       0.153817      -0.144407
  7720.52       0.673652       0.873652       0.673652       0.673652       0.155731       0.0867658
  7720.65       0.690892       0.890892       0.690892       0.690892       0.175422       0.223173
  7720.77       0.717508       0.917508       0.717508       0.717508       0.211524       0.177367
  7720.88       0.740178       0.940178       0.740178       0.740178       0.216748       0.0472275
  7721.01       0.771044       0.971044       0.771044       0.771044       0.22319      -0.16732
  7721.13       0.796868       0.996868       0.796868       0.796868       0.174249      -0.114601
  7721.25       0.811645        1.01164       0.811644       0.811644       0.196488       0.269916
  7721.38       0.845204        1.0452       0.845204       0.845204       0.240648       0.189023
  7721.5       0.872769        1.07277       0.872706       0.872706       0.244499      -0.118063
  7721.61       0.902172        2.22566       0.902285        2.02577       0.21314      -0.118117
  7721.74       0.924775        2.2088       0.925096        2.00912       0.215679       0.203991
  7721.86       0.956092        2.19386       0.956597        1.99436       0.264137      -0.106265
  7721.97       0.985527        2.17979       0.986208        1.98047       0.191238      -0.543864
  7722.1        1.00237        2.1636        1.00326        1.96449       0.132522       0.0383396
  7722.23        1.01892        2.14854        1.02        1.94962       0.2009       0.276737
  7722.36        1.0534        2.1324        1.05468        1.93368       0.202814      -0.216817
  7722.48        1.07023        2.11773        1.07171        1.91921       0.146045      -0.223509
  7722.59        1.08772        2.10403        1.08937        1.90568       0.150289      -0.164948
  7722.72        1.10706        2.08842        1.10891        1.89028       0.105632      -0.172567
  7722.85        1.11445        2.07402        1.1165        1.87608       0.106629       0.176508
  7722.96        1.13201        2.06092        1.13423        1.86314       0.146935       0.160651
  7723.05        1.14457        2.05012        1.14694        1.85249       0.139563      -0.131897
  7723.21        1.16759        2.03148        1.17022        1.8341       0.113301      -0.0953585
  7723.41        1.18479        2.00956        1.18772        1.81249       0.105711      -0.000423144
  7723.6        1.20882        1.98751        1.21206        1.79075       0.113136      -0.0491888
  7723.8        1.22936        1.96578        1.23291        1.76933       0.0863302  -0.124503
  7724        1.2431        1.94406        1.24696        1.74792       0.0637087  -0.16556
  7724.2        1.25472        1.92287        1.25889        1.72705       0.0204373  -0.166241
  7724.4        1.25119        1.90201        1.25567        1.7065      -0.00212272  -0.0303602
  7724.59        1.25388        1.88167        1.25868        1.68646       0.00847535  -0.0321567
  7724.79        1.25452        1.86154        1.25962        1.66664      -0.0147603  -0.0940051
  7725.01        1.24774        1.83952        1.25319        1.64497      -0.0306308  -0.0234483
  7725.72        1.22591        1.77028        1.23248        1.57684      -0.036661  -0.00748433
  7726.51        1.19279        1.69887        1.20059        1.50667      -0.0418498   0.000955778
  7727.3        1.15983        1.63115        1.16888        1.4402      -0.0351518   0.00497484
  7728.07        1.13799        1.57039        1.14823        1.38063      -0.034094   0.00460665
  7728.83        1.10773        1.5137        1.11918        1.32515      -0.0281128   0.0155517
  7729.59        1.09506        1.46104        1.1077        1.27368      -0.0103465   0.0156679
  7730.35        1.09198        1.41236        1.10581        1.2262      -0.00425058   0.00388805
  7731.15        1.08845        1.36539        1.10354        1.18048      -0.00430446   0.00267701
  7731.91        1.08527        1.32387        1.10156        1.14015      -8.24803e-05  -0.00249915
  7732.68        1.08833        1.28545        1.10582        1.10294      -0.00813316  -0.00570411
  7733.44        1.07282        1.25064        1.09151        1.06933      -0.00881548   0.00592836
  7734.21        1.0748        1.21852        1.0947        1.03842       0.000966873  -0.000709759
  7734.98        1.07431        1.18986        1.0954        1.01095      -0.00990496  -0.0104595
  7735.77        1.05933        1.16286        1.08169       0.985207      -0.0153603   0.00604277
  7736.54        1.0503        1.13982        1.07385       0.963373      -0.0004601   0.00752449
  7737.31        1.05863        1.11922        1.08339       0.943981      -0.00381777  -0.0130843
  7738.08        1.04442        1.10113        1.07039       0.927097      -0.0205969  -0.0103879
  7738.84        1.02701        1.08544        1.05418       0.912606      -0.0197633   0.00551168
  7739.62        1.01403        1.07183        1.04241       0.900215      -0.0121199   0.00427568
  7740.39        1.0083        1.06031        1.03789       0.889905      -0.0131616  -0.00488226
  7741.16       0.993692        1.05072        1.0245       0.881528      -0.019663  -0.00719176
  7741.95       0.977546        1.04278        1.0096       0.874825      -0.0244095  -0.00060227
  7744.45       0.91336        1.02841       0.949335       0.864381      -0.021645   0.00166579
  7746.97       0.868953        1.02671       0.90888       0.866641      -0.0160523   0.00191505
  7749.45       0.833083        1.0329       0.87691       0.876725      -0.0120679   0.00121171
  7751.94       0.809024        1.0422       0.856748       0.889927      -0.0100349   0.000900783
  7754.45       0.782888        1.05127       0.834569       0.902948      -0.00756218   0.00196526
  7756.95       0.771107        1.05938       0.826704       0.91498      -0.000181105   0.0026094
  7759.43       0.781987        1.06664       0.841479       0.926129       0.00541959   0.00149152
  7761.95       0.798194        1.07319       0.861638       0.936629       0.00727352   0.0011293
  7764.47       0.818631        1.07895       0.886033       0.946352       0.011109   0.0006135
  7766.97       0.853939        1.0839       0.925262       0.955223       0.0103521  -0.000127097
  7769.46       0.870329        1.08812       0.945573       0.963363       0.0104743   9.88749e-05
  7771.99       0.906541        1.09167       0.985749       0.970876       0.0108486  -0.00113462
  7774.49       0.924854        1.0945        1.00799       0.97763       0.00477173  -0.00184769
  7777       0.930448        1.09667        1.01752       0.983743       0.0015917  -0.000656912
  7780.56       0.934523        1.09866        1.02719       0.991334       0.000781641  -0.000765785
  7784.15       0.936038        1.09944        1.03434       0.997741      -0.00388519  -0.000496193
  7787.69       0.906817        1.09906        1.01069        1.00293      -0.00275671   0.000670679
  7791.28       0.916374        1.09759        1.02588        1.00709       0.000898767   0.000122711
  7794.86       0.91326        1.09511        1.02839        1.01023      -0.001877  -0.000618918
  7798.44       0.902946        1.09168        1.02368        1.01242      -0.00352897  -0.000185228
  7802.02       0.888018        1.08738        1.01437        1.01374      -0.00320193   3.20626e-05
  7805.61       0.879963        1.08225        1.01197        1.01426      -0.00329883   6.65299e-05
  7809.2       0.864302        1.0764        1.00195        1.01404      -0.00272365   0.000455431
  7812.81       0.860366        1.06985        1.00367        1.01316      -2.19992e-05   2.90518e-05
  7816.38       0.864145        1.06278        1.01306        1.01169      -0.00251515  -0.000481374
  7819.99       0.842295        1.0551       0.99688        1.00969      -0.00348067  -1.65851e-06
  7823.6       0.839        1.04698       0.999255        1.00724      -0.00252713  -0.000113328
  7827.22       0.824026        1.03847       0.989962        1.0044      -0.00429992   7.66669e-05
  7830.81       0.808002        1.02971       0.979576        1.00129      -0.00197444   0.000695499
  7834.44       0.809781        1.02065       0.987044       0.99791       0.000718106  -8.9868e-05
  7838.06       0.813205        1.01143       0.996156       0.994377      -0.00262562  -0.000347751
  7841.69       0.79074        1.0021       0.97939       0.990752      -0.00180378   0.00071721
  7845.32       0.80011       0.992768       0.99446       0.987117       0.00258133   0.00120802