File: Dynamic XAS/Dynamic XAS Energy analyzed data/ESweep_0_5 Hz/Same Eo/Normalized Spectra/Ir0_5Hz_ReaddMean_VPhsCorrect_17_202_mV_.csv.nor
# XDI/1.0 Athena/0.9.26
# Element.edge:                  K
# Element.symbol:                Co
# Column.1:                      energy eV
# Column.2:                      norm
# Column.3:                      nbkg
# Column.4:                      flat
# Column.5:                      fbkg
# Column.6:                      nder
# Column.7:                      nsec
# Athena.e0:                     7721.54
# Athena.eshift:                 0
# Athena.rbkg:                   1.0
# Athena.importance:             1
# Athena.standard:               None
# Athena.bkg_kweight:            3
# Athena.edge_step:              1.19536
# Athena.fixed_step:             no
# Athena.pre_edge_range:         -82.964 -19.904
# Athena.pre_edge_line:          0.292261 + 0.000176551 * E
# Athena.normalization_range:    45 125.256
# Athena.post_edge_polynomial:   15.6792 - 0.00166137 * E + 0 * E^2 + 0 * E^3
# Athena.spline_range_energy:    0.000 125.180
# Athena.clamps:                 0 24
# Athena.spline_range_k:         0.000 5.732
# Athena.kweight:                2
# Athena.window:                 hanning
# Athena.phase_correction:       no
# Athena.k_range:                .4 5.35
# Athena.dk:                     .5
# Athena.r_range:                .4 5.1
# Athena.dr:                     .5
# Athena.window:                 hanning
# Athena.plot_multiplier:        1
# Athena.y_offset:               0.2
# ///
#------------------------
#   e         norm        nbkg        flat        fbkg        nder        nsec
  7600.07      -0.214901      -0.0149008  -0.214901      -0.214901       0.0121332  -0.000504481
  7610.64      -0.0866044   0.113396      -0.0866044  -0.0866044   0.00679882  -0.000373789
  7624.56      -0.0484046   0.151595      -0.0484046  -0.0484046   0.00297947  -0.000206072
  7637.2      -0.00747266   0.192527      -0.00747266  -0.00747266   0.00132577  -0.000130696
  7649.7      -0.0150709   0.184929      -0.0150709  -0.0150709  -0.000306608   9.19224e-05
  7662.2      -0.0151376   0.184862      -0.0151376  -0.0151376   0.00362373   1.98383e-05
  7674.73       0.0756457   0.275646       0.0756457   0.0756457   0.000190024  -0.000277044
  7687.33      -0.0103619   0.189638      -0.0103619  -0.0103619  -0.00333893   6.08993e-06
  7700.01      -0.00875233   0.191248      -0.00875233  -0.00875233   0.000343959   0.00101579
  7700.39      -0.0058708   0.194129      -0.0058708  -0.0058708   0.00992419   0.00589511
  7700.72      -0.00171608   0.198284      -0.00171608  -0.00171608   0.00452359  -0.024048
  7701.07      -0.00278119   0.197219      -0.00278119  -0.00278119  -0.00650056  -0.00505154
  7701.43      -0.00636398   0.193636      -0.00636398  -0.00636398   0.000911742   0.0168219
  7701.8      -0.00211835   0.197882      -0.00211835  -0.00211835   0.00572894  -0.00451915
  7702.15      -0.00223342   0.197767      -0.00223342  -0.00223342  -0.00234657  -0.0161403
  7702.52      -0.00380084   0.196199      -0.00380084  -0.00380084  -0.00584365  -0.000922773
  7702.88      -0.00646423   0.193536      -0.00646423  -0.00646423  -0.00301465   0.00607188
  7703.24      -0.00599249   0.194008      -0.00599249  -0.00599249  -0.0014294   0.0081723
  7703.6      -0.00749482   0.192505      -0.00749482  -0.00749482   0.00287757   0.0137292
  7703.96      -0.00392351   0.196076      -0.00392351  -0.00392351   0.00844191   0.00165323
  7704.32      -0.00137444   0.198626      -0.00137444  -0.00137444   0.00407617  -0.0144689
  7704.69      -0.000964216   0.199036      -0.000964216  -0.000964216  -0.0020625  -0.0131844
  7705.02      -0.00280787   0.197192      -0.00280787  -0.00280787  -0.00508701   0.00468473
  7705.38      -0.0044946   0.195505      -0.0044946  -0.0044946   0.0011887   0.0297672
  7705.75      -0.00194131   0.198059      -0.00194131  -0.00194131   0.0166133   0.030897
  7706.11       0.00764973   0.20765       0.00764973   0.00764973   0.0237744   0.0161122
  7706.47       0.0152238   0.215224       0.0152238   0.0152238   0.0282463   0.0106178
  7706.83       0.0279588   0.227959       0.0279588   0.0279588   0.0314086  -0.0033827
  7707.2       0.037995   0.237995       0.037995   0.037995   0.0257939  -0.0173675
  7707.56       0.0466852   0.246685       0.0466852   0.0466852   0.0187998  -0.0249806
  7707.91       0.0515121   0.251512       0.0515121   0.0515121   0.00783282  -0.0213385
  7708.28       0.0523483   0.252348       0.0523483   0.0523483   0.00337205  -0.011146
  7708.65       0.053977   0.253977       0.053977   0.053977  -0.000314915  -0.0135181
  7708.98       0.0521272   0.252127       0.0521272   0.0521272  -0.00611764   0.00308094
  7709.29       0.0500373   0.250037       0.0500373   0.0500373   0.00166921   0.021167
  7709.6       0.0531521   0.253152       0.0531521   0.0531521   0.00687888  -0.0120307
  7709.9       0.054254   0.254254       0.054254   0.054254  -0.00570563  -0.0365445
  7710.21       0.0496432   0.249643       0.0496432   0.0496432  -0.015596  -0.00675151
  7710.51       0.0447249   0.244725       0.0447249   0.0447249  -0.0098308   0.0230501
  7710.82       0.0436267   0.243627       0.0436267   0.0436267  -0.00148932   0.0290517
  7711.11       0.0438402   0.24384       0.0438402   0.0438402   0.00742593   0.00659631
  7711.42       0.0480303   0.24803       0.0480303   0.0480303   0.00242229  -0.0221349
  7711.73       0.0453348   0.245335       0.0453348   0.0453348  -0.00623128  -0.0113568
  7712.03       0.0442105   0.244211       0.0442105   0.0442105  -0.00453941  -0.00437687
  7712.33       0.0425748   0.242575       0.0425748   0.0425748  -0.00889242   0.0147286
  7712.64       0.0387417   0.238742       0.0387417   0.0387417   0.0045187   0.0385345
  7712.95       0.0453764   0.245376       0.0453764   0.0453764   0.014999   0.0285114
  7713.23       0.0476061   0.247606       0.0476061   0.0476061   0.021369   0.0458927
  7713.54       0.0578773   0.257877       0.0578773   0.0578773   0.0418462   0.0618128
  7713.85       0.073467   0.273467       0.073467   0.073467   0.0595693   0.0493048
  7714.16       0.0949889   0.294989       0.0949889   0.0949889   0.0725631   0.0139118
  7714.47       0.118238       0.318238       0.118238       0.118238       0.0681528  -0.0360117
  7714.78       0.136971       0.336971       0.136971       0.136971       0.0503798  -0.0569544
  7715.08       0.148819       0.348819       0.148819       0.148819       0.0335815  -0.0110812
  7715.39       0.157422       0.357422       0.157422       0.157422       0.0436314   0.0276147
  7715.67       0.174692       0.374692       0.174692       0.174692       0.049957  -0.0301853
  7715.97       0.186697       0.386697       0.186697       0.186697       0.0259428  -0.0875109
  7716.14       0.186808       0.386808       0.186808       0.186808       0.00908947   0.0446247
  7716.26       0.189269       0.389269       0.189269       0.189269       0.0385716   0.201477
  7716.37       0.195679       0.395679       0.195679       0.195679       0.0554291   0.0838526
  7716.5       0.202794       0.402794       0.202794       0.202794       0.0590316   0.0462881
  7716.62       0.210614       0.410614       0.210614       0.210614       0.06714  -0.07268
  7716.73       0.218505       0.418505       0.218505       0.218505       0.0420245  -0.14552
  7716.87       0.220994       0.420994       0.220994       0.220994       0.0311965  -0.0121965
  7716.99       0.22646       0.42646       0.22646       0.22646       0.0389144   0.0286954
  7717.1       0.2301       0.4301       0.2301       0.2301       0.0379113   0.0664099
  7717.23       0.235748       0.435748       0.235748       0.235748       0.0551848   0.205318
  7717.35       0.243841       0.443841       0.243841       0.243841       0.0890355  -0.0249133
  7717.46       0.256137       0.456137       0.256137       0.256137       0.0494797  -0.204955
  7717.59       0.255815       0.455815       0.255815       0.255815       0.0394364   0.15729
  7717.71       0.265918       0.465918       0.265918       0.265918       0.0884877   0.173287
  7717.84       0.277937       0.477937       0.277937       0.277937       0.0827582  -0.0623735
  7717.96       0.286607       0.486607       0.286607       0.286607       0.0728943   0.104304
  7718.07       0.294849       0.494849       0.294849       0.294849       0.106957       0.116786
  7718.21       0.312918       0.512918       0.312918       0.312918       0.101624      -0.178078
  7718.33       0.320661       0.520661       0.320661       0.320661       0.0617247  -0.0233609
  7718.44       0.327424       0.527424       0.327424       0.327424       0.0961337   0.179414
  7718.57       0.344214       0.544214       0.344214       0.344214       0.105681      -0.120108
  7718.69       0.354055       0.554055       0.354055       0.354055       0.0658665  -0.0795466
  7718.81       0.359495       0.559495       0.359495       0.359495       0.0872263   0.335987
  7718.94       0.375251       0.575251       0.375251       0.375251       0.147511       0.287215
  7719.06       0.39652       0.59652       0.39652       0.39652       0.159317      -0.115159
  7719.17       0.412213       0.612213       0.412213       0.412213       0.120795      -0.218053
  7719.3       0.425873       0.625873       0.425873       0.425873       0.10633       0.101077
  7719.42       0.439008       0.639008       0.439008       0.439008       0.146266       0.161378
  7719.53       0.460392       0.660392       0.460392       0.460392       0.144416      -0.0687395
  7719.67       0.474535       0.674535       0.474535       0.474535       0.129356       0.041103
  7719.79       0.493119       0.693119       0.493119       0.493119       0.154815       0.261001
  7719.9       0.510916       0.710916       0.510916       0.510916       0.190691       0.126783
  7720.03       0.540029       0.740029       0.540029       0.540029       0.186003       0.0662719
  7720.15       0.557975       0.757975       0.557975       0.557975       0.207458       0.018604
  7720.27       0.588367       0.788367       0.588367       0.588367       0.190338      -0.246517
  7720.4       0.604227       0.804227       0.604227       0.604227       0.147554      -0.0803865
  7720.52       0.625108       0.825108       0.625108       0.625108       0.170322       0.172286
  7720.65       0.646637       0.846637       0.646637       0.646637       0.190454       0.221995
  7720.77       0.672721       0.872721       0.672721       0.672721       0.22582       0.0929894
  7720.88       0.699253       0.899253       0.699253       0.699253       0.21212      -0.0553945
  7721.01       0.725115       0.925115       0.725115       0.725115       0.212138      -0.0561723
  7721.13       0.753136       0.953136       0.753136       0.753136       0.197852      -0.0240482
  7721.25       0.771215       0.971215       0.771215       0.771215       0.206535       0.202462
  7721.38       0.803944        1.00394       0.803944       0.803944       0.247658       0.250634
  7721.5       0.83412        1.03412       0.834058       0.834058       0.270196      -0.0433255
  7721.61       0.866899        2.27505       0.86701        2.07516       0.237563      -0.195687
  7721.74       0.892085        2.25746       0.892399        2.05777       0.222448       0.160926
  7721.86       0.922511        2.24187       0.923006        2.04236       0.277795      -0.0738158
  7721.97       0.955978        2.22719       0.956645        2.02786       0.20547      -0.54154
  7722.1       0.972235        2.2103       0.973102        2.01117       0.146742       0.10127
  7722.23       0.992957        2.19459       0.994012        1.99564       0.23099       0.331942
  7722.36        1.03091        2.17775        1.03216        1.979       0.231055      -0.207306
  7722.48        1.05141        2.16245        1.05286        1.96389       0.178542      -0.238229
  7722.59        1.07286        2.14815        1.07448        1.94977       0.175072      -0.197523
  7722.72        1.09431        2.13187        1.09613        1.93369       0.130149      -0.208787
  7722.85        1.10579        2.11685        1.1078        1.91885       0.122248       0.173227
  7722.96        1.12291        2.10317        1.12509        1.90535       0.170684       0.266996
  7723.05        1.14078        2.0919        1.14311        1.89422       0.176983      -0.109904
  7723.21        1.16804        2.07245        1.17062        1.87502       0.142658      -0.138619
  7723.41        1.19143        2.04958        1.19429        1.85245       0.127773      -0.0256686
  7723.6        1.21787        2.02658        1.22105        1.82975       0.132648      -0.0603872
  7723.8        1.24369        2.00391        1.24716        1.80739       0.10398      -0.150563
  7724        1.25915        1.98125        1.26294        1.78503       0.072874  -0.167829
  7724.2        1.27269        1.95914        1.27678        1.76323       0.0371843  -0.151352
  7724.4        1.27388        1.93737        1.27827        1.74176       0.0129385  -0.0521483
  7724.59        1.27779        1.91615        1.28248        1.72084       0.0166379  -0.0528263
  7724.79        1.28042        1.89515        1.28541        1.70014      -0.00782229  -0.123854
  7725.01        1.27454        1.87217        1.27987        1.67751      -0.0348855  -0.0383036
  7725.72        1.24784        1.79992        1.25427        1.60635      -0.0435978  -0.00958871
  7726.51        1.20918        1.72541        1.21682        1.53305      -0.0492589   0.000913434
  7727.3        1.17006        1.65475        1.17891        1.46361      -0.0421555   0.00638183
  7728.07        1.14346        1.59133        1.1535        1.40137      -0.0393097   0.0077873
  7728.83        1.10999        1.53218        1.1212        1.34339      -0.0302565   0.0191825
  7729.59        1.09726        1.47721        1.10964        1.28959      -0.0100179   0.01814
  7730.35        1.09473        1.42641        1.10828        1.23996      -0.00262927   0.00600954
  7731.15        1.09318        1.37739        1.10795        1.19216      -0.000679098   0.00364474
  7731.91        1.09368        1.33404        1.10962        1.14998       0.00304559  -0.00465294
  7732.68        1.09784        1.29393        1.11497        1.11106      -0.0078074  -0.00739643
  7733.44        1.08172        1.2576        1.10002        1.0759      -0.00827834   0.00451756
  7734.21        1.08513        1.22406        1.10462        1.04355      -0.000872944  -0.00347927
  7734.98        1.08038        1.19413        1.10104        1.01479      -0.013619  -0.009877
  7735.77        1.06387        1.16594        1.08576       0.987825      -0.0162909   0.00771539
  7736.54        1.05492        1.14188        1.07798       0.964944      -0.00155986   0.00737275
  7737.31        1.06148        1.12037        1.08573       0.944611      -0.00498114  -0.0117308
  7738.08        1.04725        1.10146        1.07268       0.926893      -0.0196135  -0.00786185
  7738.84        1.03137        1.08507        1.05798       0.911674      -0.0170491   0.00592814
  7739.62        1.02103        1.07085        1.04882       0.898644      -0.010496   0.00116529
  7740.39        1.01517        1.05881        1.04415       0.887787      -0.0152499  -0.00789966
  7741.16       0.997471        1.04878        1.02764       0.878947      -0.022701  -0.00585071
  7741.95       0.979665        1.04047        1.01105       0.871852      -0.0244004   0.000306759
  7744.45       0.91717        1.02541       0.952398       0.860643      -0.0216915   0.00160751
  7746.97       0.870838        1.0236       0.909937       0.862701      -0.0163355   0.00170103
  7749.45       0.835476        1.03003       0.878393       0.872947      -0.0131846   0.00104103
  7751.94       0.805364        1.03974       0.852097       0.886473      -0.0111658   0.00105811
  7754.45       0.779625        1.04923       0.830233       0.899834      -0.00789194   0.00208418
  7756.95       0.765793        1.05775       0.820236       0.912195      -0.000715714   0.00264527
  7759.43       0.776064        1.0654       0.834321       0.923662       0.00526826   0.00160406
  7761.95       0.792124        1.07235       0.854252       0.934474       0.00730137   0.00121605
  7764.47       0.812848        1.07849       0.878852       0.944498       0.0113947   0.000805477
  7766.97       0.849303        1.08381       0.919146       0.953658       0.0113433  -3.68556e-05
  7769.46       0.869496        1.08839       0.943178       0.962074       0.0112107  -2.05567e-05
  7771.99       0.905603        1.09229       0.983167       0.969855       0.01124  -0.00112645
  7774.49       0.925989        1.09545        1.0074       0.97686       0.00554915  -0.00181343
  7777       0.933404        1.09794        1.01867       0.983212       0.00215472  -0.000739262
  7780.56       0.939076        1.10037        1.02983       0.991119       0.00105887  -0.000849927
  7784.15       0.940977        1.10155        1.03724       0.997812      -0.00392396  -0.000603191
  7787.69       0.911095        1.10154        1.01281        1.00325      -0.00324248   0.000681438
  7791.28       0.917849        1.1004        1.02508        1.00764       0.000936735   0.000261781
  7794.86       0.91781        1.09822        1.03055        1.01096      -0.00136577  -0.000629235
  7798.44       0.908078        1.09506        1.02631        1.01329      -0.00356481  -0.000285951
  7802.02       0.892311        1.09099        1.01604        1.01472      -0.00341118   2.99573e-05
  7805.61       0.883593        1.08604        1.01286        1.01531      -0.00334978   0.000102713
  7809.2       0.868229        1.08033        1.00302        1.01511      -0.00267277   0.000491535
  7812.81       0.864362        1.07388        1.00469        1.01421       0.000186813  -2.09494e-06
  7816.38       0.86957        1.06685        1.01539        1.01267      -0.00268781  -0.000562119
  7819.99       0.84505        1.05918       0.996427        1.01056      -0.00385201   2.44041e-05
  7823.6       0.841743        1.05101       0.998673        1.00794      -0.00251152  -8.03274e-05
  7827.22       0.826894        1.04239       0.989386        1.00488      -0.0044327   3.84908e-05
  7830.81       0.809788        1.03348       0.977801        1.00149      -0.00223404   0.000759008
  7834.44       0.810776        1.0242       0.984361       0.997787       0.00104354  -2.92622e-05
  7838.06       0.817349        1.01471       0.996504       0.993866      -0.00244607  -0.000409203
  7841.69       0.793037        1.00506       0.977773       0.989793      -0.001924   0.000729444
  7845.32       0.803381       0.99533       0.993698       0.985647       0.00284969   0.00131507