File: Dynamic XAS/Dynamic XAS Energy analyzed data/ESweep_0_5 Hz/Same Eo/Normalized Spectra/Ir0_5Hz_ReaddMean_VPhsCorrect_21_106_mV_.csv.nor
# XDI/1.0 Athena/0.9.26
# Element.edge:                  K
# Element.symbol:                Co
# Column.1:                      energy eV
# Column.2:                      norm
# Column.3:                      nbkg
# Column.4:                      flat
# Column.5:                      fbkg
# Column.6:                      nder
# Column.7:                      nsec
# Athena.e0:                     7721.54
# Athena.eshift:                 0
# Athena.rbkg:                   1.0
# Athena.importance:             1
# Athena.standard:               None
# Athena.bkg_kweight:            3
# Athena.edge_step:              1.19498
# Athena.fixed_step:             no
# Athena.pre_edge_range:         -82.964 -19.904
# Athena.pre_edge_line:          0.204336 + 0.000188047 * E
# Athena.normalization_range:    45 125.256
# Athena.post_edge_polynomial:   15.737 - 0.0016688 * E + 0 * E^2 + 0 * E^3
# Athena.spline_range_energy:    0.000 125.180
# Athena.clamps:                 0 24
# Athena.spline_range_k:         0.000 5.732
# Athena.kweight:                2
# Athena.window:                 hanning
# Athena.phase_correction:       no
# Athena.k_range:                .4 5.35
# Athena.dk:                     .5
# Athena.r_range:                .4 5.1
# Athena.dr:                     .5
# Athena.window:                 hanning
# Athena.plot_multiplier:        1
# Athena.y_offset:               0.2
# ///
#------------------------
#   e         norm        nbkg        flat        fbkg        nder        nsec
  7600.07      -0.214008      -0.0140083  -0.214008      -0.214008       0.0119914  -0.000491846
  7610.64      -0.0872112   0.112789      -0.0872112  -0.0872112   0.00679063  -0.000366767
  7624.56      -0.0477126   0.152287      -0.0477126  -0.0477126   0.00300965  -0.000206422
  7637.2      -0.00727784   0.192722      -0.00727784  -0.00727784   0.00130826  -0.000133114
  7649.7      -0.0148189   0.185181      -0.0148189  -0.0148189  -0.000337232   9.20969e-05
  7662.2      -0.0157083   0.184292      -0.0157083  -0.0157083   0.00361059   2.18655e-05
  7674.73       0.0755687   0.275569       0.0755687   0.0755687   0.000210148  -0.000275637
  7687.33      -0.0104268   0.189573      -0.0104268  -0.0104268  -0.00331671   4.47059e-06
  7700.01      -0.00826774   0.191732      -0.00826774  -0.00826774   0.000323151   0.000911365
  7700.39      -0.00620746   0.193793      -0.00620746  -0.00620746   0.00858298   0.00637468
  7700.72      -0.0021824   0.197818      -0.0021824  -0.0021824   0.0048428  -0.0205197
  7701.07      -0.00289983   0.1971      -0.00289983  -0.00289983  -0.00543198  -0.0044902
  7701.43      -0.00606627   0.193934      -0.00606627  -0.00606627   0.00163231   0.0143017
  7701.8      -0.00171315   0.198287      -0.00171315  -0.00171315   0.00496534  -0.00669235
  7702.15      -0.00248626   0.197514      -0.00248626  -0.00248626  -0.00319288  -0.0142179
  7702.52      -0.00400244   0.195998      -0.00400244  -0.00400244  -0.0052289  -0.000598855
  7702.88      -0.00627199   0.193728      -0.00627199  -0.00627199  -0.00362645   0.00579495
  7703.24      -0.00663887   0.193361      -0.00663887  -0.00663887  -0.00101597   0.00741289
  7703.6      -0.0070045   0.192995      -0.0070045  -0.0070045   0.00171825   0.0125298
  7703.96      -0.00540345   0.194597      -0.00540345  -0.00540345   0.00799297   0.00450579
  7704.32      -0.00120959   0.19879      -0.00120959  -0.00120959   0.00498494  -0.0135747
  7704.69      -0.00178438   0.198216      -0.00178438  -0.00178438  -0.00186227  -0.01165
  7705.02      -0.00250387   0.197496      -0.00250387  -0.00250387  -0.00311178   0.00254087
  7705.38      -0.00394396   0.196056      -0.00394396  -0.00394396  -9.8912e-05   0.0238451
  7705.75      -0.00257598   0.197424      -0.00257598  -0.00257598   0.0142713   0.0328533
  7706.11       0.00648837   0.206488       0.00648837   0.00648837   0.0239168   0.02103
  7706.47       0.014692   0.214692       0.014692   0.014692   0.029455   0.0113591
  7706.83       0.0276665   0.227666       0.0276665   0.0276665   0.032084  -0.00487627
  7707.2       0.0379529   0.237953       0.0379529   0.0379529   0.0259197  -0.018585
  7707.56       0.0464841   0.246484       0.0464841   0.0464841   0.0185913  -0.0268919
  7707.91       0.0513201   0.25132       0.0513201   0.0513201   0.00658436  -0.0211073
  7708.28       0.0512446   0.251245       0.0512446   0.0512446   0.00333074  -0.00904365
  7708.65       0.0537548   0.253755       0.0537548   0.0537548  -2.65464e-05  -0.0154687
  7708.98       0.051226   0.251226       0.051226   0.051226  -0.00752829   0.00345503
  7709.29       0.0489066   0.248907       0.0489066   0.0489066   0.00219849   0.0247653
  7709.6       0.0525759   0.252576       0.0525759   0.0525759   0.00767762  -0.0110381
  7709.9       0.053613   0.253613       0.053613   0.053613  -0.00456784  -0.0378331
  7710.21       0.0497667   0.249767       0.0497667   0.0497667  -0.0155897  -0.0114112
  7710.51       0.0440877   0.244088       0.0440877   0.0440877  -0.0115401   0.0204517
  7710.82       0.0427041   0.242704       0.0427041   0.0427041  -0.0030733   0.0317765
  7711.11       0.0422621   0.242262       0.0422621   0.0422621   0.00733513   0.0119041
  7711.42       0.0470539   0.247054       0.0470539   0.0470539   0.00398582  -0.0243006
  7711.73       0.0447214   0.244721       0.0447214   0.0447214  -0.00765833  -0.0125924
  7712.03       0.0423593   0.242359       0.0423593   0.0423593  -0.00373335   0.00205801
  7712.33       0.0424515   0.242452       0.0424515   0.0424515  -0.00640706   0.0114656
  7712.64       0.038419   0.238419       0.038419   0.038419   0.00331799   0.0331979
  7712.95       0.0445087   0.244509       0.0445087   0.0445087   0.0141756   0.0329692
  7713.23       0.0467968   0.246797       0.0467968   0.0467968   0.0228028   0.0490897
  7713.54       0.0578483   0.257848       0.0578483   0.0578483   0.0428931   0.0574789
  7713.85       0.0733047   0.273305       0.0733047   0.0733047   0.0583248   0.0550226
  7714.16       0.0941846   0.294185       0.0941846   0.0941846   0.0771722   0.0209136
  7714.47       0.12092       0.32092       0.12092       0.12092       0.0712285  -0.0520865
  7714.78       0.138061       0.338061       0.138061       0.138061       0.0450869  -0.0597086
  7715.08       0.148288       0.348288       0.148288       0.148288       0.0349853   0.00602463
  7715.39       0.159367       0.359367       0.159367       0.159367       0.0487559   0.0182076
  7715.67       0.1772       0.3772       0.1772       0.1772       0.0457824  -0.0491935
  7715.97       0.186196       0.386196       0.186196       0.186196       0.0199285  -0.0575244
  7716.14       0.186507       0.386507       0.186507       0.186507       0.0189185   0.0576741
  7716.26       0.19155       0.39155       0.19155       0.19155       0.0362502   0.135277
  7716.37       0.194844       0.394844       0.194844       0.194844       0.0500323   0.154639
  7716.5       0.203758       0.403758       0.203758       0.203758       0.0739821   0.0637173
  7716.62       0.213562       0.413562       0.213562       0.213562       0.0661528  -0.165039
  7716.73       0.219238       0.419238       0.219238       0.219238       0.035363  -0.162896
  7716.87       0.222296       0.422296       0.222296       0.222296       0.0259176  -0.0109551
  7716.99       0.225847       0.425847       0.225847       0.225847       0.0325694   0.0490965
  7717.1       0.229917       0.429917       0.229917       0.229917       0.0374061   0.0619644
  7717.23       0.235011       0.435011       0.235011       0.235011       0.0477507   0.200549
  7717.35       0.241807       0.441807       0.241807       0.241807       0.0873429   0.0521674
  7717.46       0.255013       0.455013       0.255013       0.255013       0.059697  -0.163736
  7717.59       0.256254       0.456254       0.256254       0.256254       0.0477188   0.0928272
  7717.71       0.266847       0.466847       0.266847       0.266847       0.0827182   0.140979
  7717.84       0.276934       0.476934       0.276934       0.276934       0.0829634   0.0728225
  7717.96       0.287588       0.487588       0.287588       0.287588       0.100924       0.0797658
  7718.07       0.300348       0.500348       0.300348       0.300348       0.101469      -0.0796622
  7718.21       0.312549       0.512549       0.312549       0.312549       0.0813269  -0.140681
  7718.33       0.321005       0.521005       0.321005       0.321005       0.0657361   0.0834287
  7718.44       0.327997       0.527997       0.327997       0.327997       0.100933       0.127167
  7718.57       0.345733       0.545733       0.345733       0.345733       0.0968921  -0.0572614
  7718.69       0.352414       0.552414       0.352414       0.352414       0.0865028   0.00989429
  7718.81       0.365802       0.565802       0.365802       0.365802       0.0991876   0.123763
  7718.94       0.376516       0.576516       0.376516       0.376516       0.116577       0.230788
  7719.06       0.395063       0.595063       0.395063       0.395063       0.157115       0.0285933
  7719.17       0.412967       0.612967       0.412967       0.412967       0.123211      -0.126323
  7719.3       0.425003       0.625003       0.425003       0.425003       0.126419       0.0939142
  7719.42       0.444825       0.644825       0.444825       0.444825       0.146877       0.00358509
  7719.53       0.459666       0.659666       0.459666       0.459666       0.127265       0.0356709
  7719.67       0.476132       0.676132       0.476132       0.476132       0.155652       0.08926
  7719.79       0.499046       0.699046       0.499046       0.499046       0.149848       0.0364335
  7719.9       0.511346       0.711346       0.511346       0.511346       0.164214       0.228474
  7720.03       0.539443       0.739443       0.539443       0.539443       0.206052       0.1763
  7720.15       0.563477       0.763477       0.563477       0.563477       0.208818      -0.133565
  7720.27       0.588098       0.788098       0.588098       0.588098       0.174932      -0.115941
  7720.4       0.605986       0.805986       0.605986       0.605986       0.180644      -0.0444252
  7720.52       0.633078       0.833078       0.633078       0.633078       0.16387      -0.0195794
  7720.65       0.646789       0.846789       0.646789       0.646789       0.175769       0.243468
  7720.77       0.67702       0.87702       0.67702       0.67702       0.224737       0.130835
  7720.88       0.699153       0.899153       0.699153       0.699153       0.206254       0.0278307
  7721.01       0.727965       0.927965       0.727965       0.727965       0.231611      -0.0688619
  7721.13       0.757982       0.957982       0.757982       0.757982       0.188763      -0.158172
  7721.25       0.771947       0.971947       0.771947       0.771947       0.194757       0.269529
  7721.38       0.805892        1.00589       0.805892       0.805892       0.255067       0.271025
  7721.5       0.836734        1.03673       0.836671       0.836671       0.263597      -0.116239
  7721.61       0.867311        2.27759       0.867422        2.07771       0.227983      -0.195848
  7721.74       0.892361        2.25993       0.892678        2.06025       0.21581       0.235152
  7721.86       0.921263        2.24428       0.921763        2.04478       0.286771      -0.0209112
  7721.97       0.958319        2.22955       0.958993        2.03022       0.211001      -0.560404
  7722.1       0.972325        2.21259       0.973202        2.01347       0.151153       0.0574388
  7722.23       0.996409        2.19682       0.997475        1.99789       0.225475       0.265258
  7722.36        1.0296        2.17991        1.03087        1.98119       0.218529      -0.147562
  7722.48        1.0517        2.16455        1.05316        1.96601       0.188142      -0.175529
  7722.59        1.07381        2.1502        1.07545        1.95184       0.177279      -0.26346
  7722.72        1.09513        2.13386        1.09697        1.9357       0.123594      -0.221167
  7722.85        1.10508        2.11878        1.10711        1.92081       0.121324       0.214223
  7722.96        1.12352        2.10505        1.12572        1.90726       0.173723       0.260922
  7723.05        1.14069        2.09374        1.14304        1.89609       0.174813      -0.129486
  7723.21        1.1681        2.07422        1.1707        1.87682       0.140704      -0.138405
  7723.41        1.19064        2.05126        1.19354        1.85416       0.125679      -0.022391
  7723.6        1.21711        2.02817        1.22032        1.83138       0.131971      -0.0506344
  7723.8        1.24264        2.00542        1.24615        1.80893       0.105729      -0.152049
  7724        1.25909        1.98267        1.26291        1.78649       0.0716078  -0.185195
  7724.2        1.27114        1.96048        1.27527        1.76461       0.0320217  -0.150494
  7724.4        1.27177        1.93863        1.27621        1.74307       0.0120121  -0.0412194
  7724.59        1.27587        1.91733        1.28061        1.72207       0.0157813  -0.061234
  7724.79        1.27797        1.89625        1.28302        1.7013      -0.0120529  -0.118969
  7725.01        1.27086        1.87319        1.27625        1.67858      -0.03371  -0.032117
  7725.72        1.24648        1.80067        1.25298        1.60717      -0.0420502  -0.0104134
  7726.51        1.20782        1.7259        1.21554        1.53362      -0.0493198   0.000156699
  7727.3        1.16861        1.65499        1.17756        1.46395      -0.0418027   0.00693782
  7728.07        1.14265        1.59137        1.15279        1.40151      -0.0385037   0.00827546
  7728.83        1.10977        1.53202        1.1211        1.34335      -0.0291578   0.0183661
  7729.59        1.09813        1.47688        1.11064        1.28939      -0.0104587   0.0169869
  7730.35        1.09385        1.42592        1.10754        1.23962      -0.00328671   0.00706907
  7731.15        1.09302        1.37676        1.10795        1.19169       0.000526661   0.00327599
  7731.91        1.09467        1.33329        1.11078        1.1494       0.001814  -0.00574876
  7732.68        1.0958        1.29308        1.11311        1.11039      -0.00828044  -0.00710729
  7733.44        1.08199        1.25666        1.10048        1.07515      -0.00906726   0.00394892
  7734.21        1.08188        1.22304        1.10158        1.04274      -0.00221885  -0.00153649
  7734.98        1.07858        1.19306        1.09946        1.01393      -0.0114258  -0.0083951
  7735.77        1.06405        1.16481        1.08617       0.986931      -0.0153236   0.00554628
  7736.54        1.05463        1.14072        1.07794       0.964029      -0.00275694   0.00643835
  7737.31        1.05982        1.11918        1.08432       0.943685      -0.00544717  -0.0109084
  7738.08        1.04625        1.10027        1.07195       0.925968      -0.019545  -0.00785249
  7738.84        1.02982        1.08387        1.0567       0.91076      -0.0175007   0.00572301
  7739.62        1.01933        1.06966        1.04742       0.89775      -0.010743   0.00204615
  7740.39        1.01323        1.05763        1.04252       0.886921      -0.0143415  -0.00671103
  7741.16       0.997175        1.04763        1.02766       0.878117      -0.0211115  -0.00638343
  7741.95       0.98021        1.03935        1.01193       0.871067      -0.0243252  -0.0003188
  7744.45       0.917121        1.02443       0.952723       0.860035      -0.0221607   0.00158584
  7746.97       0.86903        1.0228       0.908543       0.862309      -0.016369   0.00184702
  7749.45       0.835259        1.0294       0.878633       0.872776      -0.0129238   0.00099194
  7751.94       0.804851        1.03928       0.852081       0.886505      -0.0114431   0.000989873
  7754.45       0.778021        1.04889       0.829167       0.900035      -0.00797243   0.00214898
  7756.95       0.764877        1.0575       0.819898       0.912523      -0.000668065   0.00276039
  7759.43       0.774698        1.06521       0.833574       0.924082       0.00576051   0.00166205
  7761.95       0.793668        1.07217       0.856455       0.934955       0.00763886   0.001085
  7764.47       0.813182        1.07831       0.879887       0.94501       0.0112267   0.000711444
  7766.97       0.850004        1.08359       0.920588       0.954172       0.0112089  -1.40185e-05
  7769.46       0.869159        1.0881       0.943624       0.962568       0.0111567  -1.83402e-05
  7771.99       0.906033        1.09192       0.984421       0.970305       0.0111168  -0.00116051
  7774.49       0.925032        1.09497        1.00731       0.977249       0.005324  -0.00177272
  7777       0.932706        1.09735        1.01888       0.983524       0.00223544  -0.00073897
  7780.56       0.93861        1.09959        1.03032       0.991299       0.000835497  -0.000877016
  7784.15       0.938682        1.10056        1.03597       0.997842      -0.00403698  -0.000558062
  7787.69       0.909823        1.10033        1.01262        1.00312      -0.00314404   0.000653833
  7791.28       0.916255        1.09898        1.02463        1.00735       0.000626811   0.000250282
  7794.86       0.914316        1.09658        1.02825        1.01051      -0.00134977  -0.000527565
  7798.44       0.906599        1.09322        1.02609        1.01271      -0.00314739  -0.00031373
  7802.02       0.891803        1.08897        1.01685        1.01402      -0.00359388  -3.654e-05
  7805.61       0.880802        1.08388        1.01144        1.01452      -0.00340967   0.000144001
  7809.2       0.867291        1.07807        1.00351        1.01429      -0.00255866   0.000458519
  7812.81       0.862392        1.07156        1.00421        1.01338      -0.00011063   1.16613e-05
  7816.38       0.866497        1.06454        1.01387        1.01192      -0.00247497  -0.000505042
  7819.99       0.84461        1.05694       0.997594        1.00993      -0.00373936  -3.67084e-05
  7823.6       0.839484        1.04891       0.99808        1.00751      -0.00274015  -7.83013e-05
  7827.22       0.824801        1.04052       0.989019        1.00474      -0.0043054   8.84368e-05
  7830.81       0.808446        1.03193       0.978244        1.00173      -0.00210261   0.000738156
  7834.44       0.809631        1.02307       0.98506       0.998503       0.0010204  -7.49533e-05
  7838.06       0.81584        1.01411       0.996897       0.995172      -0.00264572  -0.000383435
  7841.69       0.790444        1.00511       0.977142       0.991807      -0.00176028   0.000843147
  7845.32       0.80306       0.99616       0.995398       0.988498       0.00347553   0.00144237