File: Dynamic XAS/Dynamic XAS Energy analyzed data/ESweep_0_5 Hz/Same Eo/Normalized Spectra/Ir0_5Hz_ReaddMean_VPhsCorrect_2_77_mV_.csv.nor
# XDI/1.0 Athena/0.9.26
# Element.edge:                  K
# Element.symbol:                Co
# Column.1:                      energy eV
# Column.2:                      norm
# Column.3:                      nbkg
# Column.4:                      flat
# Column.5:                      fbkg
# Column.6:                      nder
# Column.7:                      nsec
# Athena.e0:                     7721.54
# Athena.eshift:                 0
# Athena.rbkg:                   1.0
# Athena.importance:             1
# Athena.standard:               None
# Athena.bkg_kweight:            3
# Athena.edge_step:              1.19397
# Athena.fixed_step:             no
# Athena.pre_edge_range:         -82.964 -19.904
# Athena.pre_edge_line:          0.118310 + 0.000199301 * E
# Athena.normalization_range:    45 125.256
# Athena.post_edge_polynomial:   15.6831 - 0.00166183 * E + 0 * E^2 + 0 * E^3
# Athena.spline_range_energy:    0.000 125.180
# Athena.clamps:                 0 24
# Athena.spline_range_k:         0.000 5.732
# Athena.kweight:                2
# Athena.window:                 hanning
# Athena.phase_correction:       no
# Athena.k_range:                .4 5.35
# Athena.dk:                     .5
# Athena.r_range:                .4 5.1
# Athena.dr:                     .5
# Athena.window:                 hanning
# Athena.plot_multiplier:        1
# Athena.y_offset:               0.2
# ///
#------------------------
#   e         norm        nbkg        flat        fbkg        nder        nsec
  7600.07      -0.216905      -0.0169049  -0.216905      -0.216905       0.0125253  -0.000532546
  7610.64      -0.0844625   0.115538      -0.0844625  -0.0844625   0.00689415  -0.000393365
  7624.56      -0.0480741   0.151926      -0.0480741  -0.0480741   0.00289217  -0.000209737
  7637.2      -0.00764928   0.192351      -0.00764928  -0.00764928   0.00132375  -0.000130909
  7649.7      -0.0147911   0.185209      -0.0147911  -0.0147911  -0.000399266   9.82501e-05
  7662.2      -0.0176305   0.182369      -0.0176305  -0.0176305   0.0037799   2.56928e-05
  7674.73       0.079835   0.279835       0.079835   0.079835   0.000243929  -0.000289711
  7687.33      -0.0115001   0.1885      -0.0115001  -0.0115001  -0.00350112   6.69336e-06
  7700.01      -0.00866277   0.191337      -0.00866277  -0.00866277   0.000413117   0.000941754
  7700.39      -0.00610606   0.193894      -0.00610606  -0.00610606   0.00879536   0.00472352
  7700.72      -0.00242686   0.197573      -0.00242686  -0.00242686   0.00376209  -0.0202496
  7701.07      -0.00353655   0.196463      -0.00353655  -0.00353655  -0.00503509  -0.00135302
  7701.43      -0.00602695   0.193973      -0.00602695  -0.00602695   0.00279468   0.015516
  7701.8      -0.00150482   0.198495      -0.00150482  -0.00150482   0.00624506  -0.00879263
  7702.15      -0.00152425   0.198476      -0.00152425  -0.00152425  -0.00354481  -0.0190762
  7702.52      -0.00404645   0.195954      -0.00404645  -0.00404645  -0.00743257  -0.000390471
  7702.88      -0.00690543   0.193095      -0.00690543  -0.00690543  -0.00382751   0.010485
  7703.24      -0.00682905   0.193171      -0.00682905  -0.00682905   0.000190049   0.00928638
  7703.6      -0.00676841   0.193232      -0.00676841  -0.00676841   0.00286797   0.0117514
  7703.96      -0.00476698   0.195233      -0.00476698  -0.00476698   0.0086393   0.00163498
  7704.32      -0.000504918   0.199495      -0.000504918  -0.000504918   0.00405333  -0.0158987
  7704.69      -0.00182426   0.198176      -0.00182426  -0.00182426  -0.00290316  -0.0113457
  7705.02      -0.00252262   0.197477      -0.00252262  -0.00252262  -0.00383195   0.00388907
  7705.38      -0.00448363   0.195516      -0.00448363  -0.00448363  -0.000204147   0.0286929
  7705.75      -0.00267144   0.197329      -0.00267144  -0.00267144   0.0170852   0.0345316
  7706.11       0.00800563   0.208006       0.00800563   0.00800563   0.0250385   0.0169619
  7706.47       0.0154063   0.215406       0.0154063   0.0154063   0.0293317   0.011183
  7706.83       0.0290951   0.229095       0.0290951   0.0290951   0.033079  -0.00345062
  7707.2       0.0393886   0.239389       0.0393886   0.0393886   0.0268299  -0.0225283
  7707.56       0.0485736   0.248574       0.0485736   0.0485736   0.0167235  -0.0331247
  7707.91       0.0514128   0.251413       0.0514128   0.0514128   0.00301329  -0.0201683
  7708.28       0.0507522   0.250752       0.0507522   0.0507522   0.0021418  -0.00517667
  7708.65       0.0529785   0.252978       0.0529785   0.0529785  -0.000770859  -0.0135468
  7708.98       0.0502111   0.250211       0.0502111   0.0502111  -0.00736806   0.00764187
  7709.29       0.0482335   0.248233       0.0482335   0.0482335   0.00415051   0.0215065
  7709.6       0.0527595   0.25276       0.0527595   0.0527595   0.00583692  -0.0175787
  7709.9       0.0518115   0.251812       0.0518115   0.0518115  -0.00662525  -0.0309277
  7710.21       0.048685   0.248685       0.048685   0.048685  -0.0131836  -0.000130544
  7710.51       0.0437563   0.243756       0.0437563   0.0437563  -0.00670501   0.0213527
  7710.82       0.0445815   0.244582       0.0445815   0.0445815  -0.00011581   0.0266312
  7711.11       0.0436875   0.243688       0.0436875   0.0436875   0.0091139   0.0132744
  7711.42       0.049986   0.249986       0.049986   0.049986   0.0077559  -0.0235624
  7711.73       0.0484729   0.248473       0.0484729   0.0484729  -0.0054241  -0.0145819
  7712.03       0.0466611   0.246661       0.0466611   0.0466611  -0.00118277  -4.13522e-06
  7712.33       0.0477538   0.247754       0.0477538   0.0477538  -0.00542661   0.00990176
  7712.64       0.0433237   0.243324       0.0433237   0.0433237   0.00490681   0.0410757
  7712.95       0.050796   0.250796       0.050796   0.050796   0.0200403   0.0348602
  7713.23       0.0551675   0.255168       0.0551675   0.0551675   0.0255092   0.0471125
  7713.54       0.0657189   0.265719       0.0657189   0.0657189   0.0476011   0.0604321
  7713.85       0.084585   0.284585       0.084585   0.084585   0.0628562   0.0421996
  7714.16       0.104878       0.304878       0.104878       0.104878       0.0738915   0.011385
  7714.47       0.130176       0.330176       0.130176       0.130176       0.0698807  -0.0442222
  7714.78       0.147925       0.347925       0.147925       0.147925       0.0466506  -0.0495974
  7715.08       0.158493       0.358493       0.158493       0.158493       0.0397751   0.00947628
  7715.39       0.172148       0.372148       0.172148       0.172148       0.0524216   0.00962142
  7715.67       0.189579       0.389579       0.189579       0.189579       0.0454806  -0.0581868
  7715.97       0.198799       0.398799       0.198799       0.198799       0.0183241  -0.0493732
  7716.14       0.198136       0.398136       0.198136       0.198136       0.0224233   0.0728017
  7716.26       0.205145       0.405145       0.205145       0.205145       0.038927   0.0685512
  7716.37       0.20709       0.40709       0.20709       0.20709       0.0381901   0.161155
  7716.5       0.214464       0.414464       0.214464       0.214464       0.0782488   0.15287
  7716.62       0.226887       0.426887       0.226887       0.226887       0.0768663  -0.0766919
  7716.73       0.23245       0.43245       0.23245       0.23245       0.0603029  -0.15592
  7716.87       0.241781       0.441781       0.241781       0.241781       0.038354  -0.0918341
  7716.99       0.242231       0.442231       0.242231       0.242231       0.0368853   0.0783755
  7717.1       0.250412       0.450412       0.250412       0.250412       0.0566939  -0.00745953
  7717.23       0.256121       0.456121       0.256121       0.256121       0.0350577   0.0390171
  7717.35       0.259142       0.459142       0.259142       0.259142       0.0664092   0.191508
  7717.46       0.271328       0.471328       0.271328       0.271328       0.0789131  -0.0417814
  7717.59       0.278239       0.478239       0.278239       0.278239       0.056298   0.0212158
  7717.71       0.28529       0.48529       0.28529       0.28529       0.0841746   0.200247
  7717.84       0.299282       0.499282       0.299282       0.299282       0.10636       0.0383516
  7717.96       0.31188       0.51188       0.31188       0.31188       0.0937625  -0.10567
  7718.07       0.321035       0.521035       0.321035       0.321035       0.0818445   0.0225205
  7718.21       0.332014       0.532014       0.332014       0.332014       0.0993025   0.0544154
  7718.33       0.346258       0.546258       0.346258       0.346258       0.095666  -0.0754019
  7718.44       0.354495       0.554495       0.354495       0.354495       0.0815831  -0.0943829
  7718.57       0.366246       0.566246       0.366246       0.366246       0.0725422   0.102713
  7718.69       0.372776       0.572776       0.372776       0.372776       0.107467       0.297327
  7718.81       0.391178       0.591178       0.391178       0.391178       0.141522       0.0071224
  7718.94       0.407166       0.607166       0.407166       0.407166       0.109198      -0.0791002
  7719.06       0.418587       0.618587       0.418587       0.418587       0.121668       0.0499778
  7719.17       0.435393       0.635393       0.435393       0.435393       0.120792       0.076343
  7719.3       0.447939       0.647939       0.447939       0.447939       0.140219       0.281591
  7719.42       0.470728       0.670728       0.470728       0.470728       0.191753       0.063099
  7719.53       0.493193       0.693193       0.493193       0.493193       0.155111      -0.257729
  7719.67       0.508885       0.708885       0.508885       0.508885       0.128352      -0.0259104
  7719.79       0.525666       0.725666       0.525666       0.525666       0.148555       0.15496
  7719.9       0.543796       0.743796       0.543796       0.543796       0.164767       0.188891
  7720.03       0.566199       0.766199       0.566199       0.566199       0.195022       0.144714
  7720.15       0.593136       0.793136       0.593136       0.593136       0.20138      -0.0162511
  7720.27       0.613121       0.813121       0.613121       0.613121       0.191236      -0.0563881
  7720.4       0.639607       0.839607       0.639607       0.639607       0.187678      -0.085769
  7720.52       0.659852       0.859852       0.659852       0.659852       0.169879      -0.0585688
  7720.65       0.681907       0.881907       0.681907       0.681907       0.173094       0.132103
  7720.77       0.703126       0.903126       0.703126       0.703126       0.202905       0.234787
  7720.88       0.729184       0.929184       0.729184       0.729184       0.227799       0.040309
  7721.01       0.759392       0.959392       0.759392       0.759392       0.212862      -0.215665
  7721.13       0.78325       0.98325       0.78325       0.78325       0.17302      -0.107994
  7721.25       0.799706       0.999706       0.799706       0.799706       0.187699       0.24082
  7721.38       0.829424        1.02942       0.829424       0.829424       0.232262       0.262448
  7721.5       0.858701        1.0587       0.858638       0.858638       0.254361       0.0395617
  7721.61       0.88869        2.24025       0.888803        2.04036       0.24148      -0.1747
  7721.74       0.917622        2.22316       0.91794        2.02348       0.211734       0.0361126
  7721.86       0.941624        2.20802       0.942126        2.00852       0.250508      -0.0677629
  7721.97       0.975239        2.19376       0.975915        1.99444       0.196148      -0.412853
  7722.1       0.989092        2.17736       0.989971        1.97824       0.150598       0.0682579
  7722.23        1.01319        2.1621        1.01426        1.96317       0.213349       0.245803
  7722.36        1.04328        2.14574        1.04456        1.94701       0.213032      -0.143524
  7722.48        1.06709        2.13088        1.06855        1.93234       0.177038      -0.295382
  7722.59        1.08489        2.11699        1.08653        1.91863       0.143617      -0.317217
  7722.72        1.10227        2.10118        1.10412        1.90303       0.0993195  -0.156085
  7722.85        1.11001        2.08659        1.11205        1.88862       0.104127       0.26714
  7722.96        1.12664        2.07331        1.12885        1.87552       0.16183       0.280591
  7723.05        1.14319        2.06236        1.14554        1.86471       0.161649      -0.160383
  7723.21        1.16786        2.04347        1.17047        1.84608       0.120933      -0.146197
  7723.41        1.18612        2.02126        1.18903        1.82417       0.109749       0.00942365
  7723.6        1.21066        1.99892        1.21388        1.80213       0.124608      -0.0337508
  7723.8        1.23522        1.9769        1.23874        1.78043       0.096451  -0.17376
  7724        1.24895        1.95489        1.25279        1.75872       0.0556253  -0.203382
  7724.2        1.25735        1.93342        1.2615        1.73756       0.0155048  -0.129614
  7724.4        1.25509        1.91228        1.25954        1.71673       0.00429811   0.00050766
  7724.59        1.25905        1.89167        1.26381        1.69642       0.0157048  -0.0469587
  7724.79        1.26126        1.87126        1.26633        1.67633      -0.0141567  -0.117005
  7725.01        1.25316        1.84895        1.25856        1.65436      -0.0329694  -0.0265315
  7725.72        1.23047        1.77878        1.23699        1.5853      -0.0389371  -0.00697742
  7726.51        1.19479        1.70642        1.20253        1.51416      -0.0434286   0.00281873
  7727.3        1.1619        1.6378        1.17088        1.44678      -0.0344863   0.00554951
  7728.07        1.14103        1.57622        1.1512        1.38639      -0.0347769   0.00317998
  7728.83        1.10876        1.51878        1.12012        1.33014      -0.0296273   0.0156691
  7729.59        1.09579        1.46541        1.10834        1.27796      -0.0108503   0.017462
  7730.35        1.09223        1.41608        1.10597        1.22982      -0.00303273   0.00559437
  7731.15        1.09107        1.36848        1.10605        1.18346      -0.00215662   0.00137674
  7731.91        1.08887        1.3264        1.10504        1.14256      -0.000889149  -0.00413547
  7732.68        1.08971        1.28746        1.10708        1.10483      -0.00849216  -0.00480396
  7733.44        1.07587        1.25219        1.09442        1.07074      -0.00824402   0.00590911
  7734.21        1.07706        1.21964        1.09681        1.0394       0.000578331  -0.00073911
  7734.98        1.07676        1.19059        1.0977        1.01154      -0.00937855  -0.0105008
  7735.77        1.06242        1.16323        1.08461       0.985419      -0.0158135   0.00405189
  7736.54        1.05204        1.13989        1.07542       0.963268      -0.00304544   0.00669477
  7737.31        1.05775        1.11901        1.08233       0.943592      -0.00554367  -0.0109044
  7738.08        1.04351        1.10068        1.06929       0.926456      -0.0198272  -0.00804333
  7738.84        1.02731        1.08477        1.05428       0.911746      -0.0178902   0.0058313
  7739.62        1.016        1.07099        1.04417       0.899164      -0.0108587   0.00246209
  7740.39        1.01055        1.05931        1.03993       0.888692      -0.0140887  -0.00716091
  7741.16       0.99423        1.04959        1.02482       0.880179      -0.0219223  -0.00665116
  7741.95       0.976259        1.04154        1.00808       0.873362      -0.0244911   0.000149597
  7744.45       0.91363        1.02699       0.949345       0.862705      -0.02143   0.00174056
  7746.97       0.868745        1.02529       0.908383       0.864928      -0.0157588   0.00179737
  7749.45       0.834821        1.03158       0.878331       0.875087      -0.0124413   0.00102539
  7751.94       0.806961        1.04104       0.85434       0.888416      -0.0106666   0.000974844
  7754.45       0.781466        1.05026       0.832773       0.90157      -0.00756517   0.00200451
  7756.95       0.769029        1.05854       0.824224       0.913731      -0.00061604   0.00259261
  7759.43       0.778401        1.06594       0.837463       0.925007       0.00533304   0.0016893
  7761.95       0.795684        1.07265       0.858669       0.935632       0.0078271   0.00115604
  7764.47       0.817834        1.07856       0.884749       0.945478       0.0111572   0.000557385
  7766.97       0.85167        1.08366       0.922478       0.954467       0.0106241  -4.15885e-05
  7769.46       0.870891        1.08802       0.94559       0.962722       0.0109495  -5.91348e-06
  7771.99       0.906659        1.09171       0.985294       0.970347       0.0105944  -0.00115922
  7774.49       0.924138        1.09467        1.00667       0.977208       0.00512323  -0.00165471
  7777       0.932326        1.09698        1.01877       0.983424       0.00230428  -0.000762121
  7780.56       0.938134        1.09915        1.03014       0.991152       0.000494105  -0.000874869
  7784.15       0.93586        1.10009        1.03345       0.997686      -0.00395278  -0.000495793
  7787.69       0.909947        1.09987        1.01306        1.00299      -0.0030414   0.00063484
  7791.28       0.914166        1.09854        1.02288        1.00726       0.000575533   0.0002365
  7794.86       0.914073        1.09619        1.02837        1.01048      -0.00134593  -0.000586321
  7798.44       0.904537        1.09288        1.0244        1.01275      -0.00361901  -0.000259768
  7802.02       0.888186        1.08869        1.01363        1.01413      -0.00320405   6.10616e-05
  7805.61       0.881538        1.08364        1.01259        1.01469      -0.00318071   0.000108806
  7809.2       0.86532        1.07785        1.00197        1.0145      -0.00242185   0.000482257
  7812.81       0.864113        1.07135        1.00638        1.01362       0.000289126  -6.37834e-05
  7816.38       0.867395        1.06431        1.01523        1.01215      -0.00287962  -0.000557156
  7819.99       0.843423        1.05664       0.99689        1.01011      -0.00371404   3.38133e-05
  7823.6       0.840565        1.04851       0.999661        1.00761      -0.00263535  -9.09083e-05
  7827.22       0.824372        1.03996       0.989108        1.0047      -0.00437121   6.44849e-05
  7830.81       0.809053        1.03115       0.979386        1.00148      -0.00217048   0.000736423
  7834.44       0.808712        1.022       0.984694       0.997986       0.000942076  -4.18117e-05
  7838.06       0.815879        1.01268       0.997507       0.994307      -0.00247345  -0.000415369
  7841.69       0.790774        1.00322       0.978061       0.990508      -0.00207018   0.000722996
  7845.32       0.800849       0.993728       0.993794       0.986673       0.0027755   0.0013349