File: Dynamic XAS/Dynamic XAS Energy analyzed data/ESweep_0_5 Hz/Same Eo/Normalized Spectra/Ir0_5Hz_ReaddMean_VPhsCorrect_38_-248_mV_.csv.nor
# XDI/1.0 Athena/0.9.26
# Element.edge:                  K
# Element.symbol:                Co
# Column.1:                      energy eV
# Column.2:                      norm
# Column.3:                      nbkg
# Column.4:                      flat
# Column.5:                      fbkg
# Column.6:                      nder
# Column.7:                      nsec
# Athena.e0:                     7721.54
# Athena.eshift:                 0
# Athena.rbkg:                   1.0
# Athena.importance:             1
# Athena.standard:               None
# Athena.bkg_kweight:            3
# Athena.edge_step:              1.1929
# Athena.fixed_step:             no
# Athena.pre_edge_range:         -82.964 -19.904
# Athena.pre_edge_line:          -0.007993 + 0.000215711 * E
# Athena.normalization_range:    45 125.256
# Athena.post_edge_polynomial:   15.5909 - 0.00164997 * E + 0 * E^2 + 0 * E^3
# Athena.spline_range_energy:    0.000 125.180
# Athena.clamps:                 0 24
# Athena.spline_range_k:         0.000 5.732
# Athena.kweight:                2
# Athena.window:                 hanning
# Athena.phase_correction:       no
# Athena.k_range:                .4 5.35
# Athena.dk:                     .5
# Athena.r_range:                .4 5.1
# Athena.dr:                     .5
# Athena.window:                 hanning
# Athena.plot_multiplier:        1
# Athena.y_offset:               0.2
# ///
#------------------------
#   e         norm        nbkg        flat        fbkg        nder        nsec
  7600.07      -0.212384      -0.0123839  -0.212384      -0.212384       0.0121572  -0.000505544
  7610.64      -0.0838334   0.116167      -0.0838334  -0.0838334   0.00681161  -0.000379671
  7624.56      -0.0455745   0.154425      -0.0455745  -0.0455745   0.00285947  -0.000211929
  7637.2      -0.00788874   0.192111      -0.00788874  -0.00788874   0.001183  -0.000126247
  7649.7      -0.0158305   0.18417      -0.0158305  -0.0158305  -0.000314765   0.000105438
  7662.2      -0.0157576   0.184242      -0.0157576  -0.0157576   0.00381883   1.90021e-05
  7674.73       0.0797701   0.27977       0.0797702   0.0797702   0.000160932  -0.000292182
  7687.33      -0.011713   0.188287      -0.011713  -0.011713  -0.0035243   1.22897e-05
  7700.01      -0.00931348   0.190687      -0.00931348  -0.00931348   0.000471578   0.00108516
  7700.39      -0.0055556   0.194444      -0.0055556  -0.0055556   0.0106446   0.00440036
  7700.72      -0.00176645   0.198234      -0.00176645  -0.00176645   0.00359144  -0.0263079
  7701.07      -0.00310265   0.196897      -0.00310265  -0.00310265  -0.0073237  -0.00259259
  7701.43      -0.0070029   0.192997      -0.0070029  -0.0070029   0.00173774   0.0204403
  7701.8      -0.00183932   0.198161      -0.00183932  -0.00183932   0.00753639  -0.006224
  7702.15      -0.00156916   0.198431      -0.00156916  -0.00156916  -0.00274976  -0.0201758
  7702.52      -0.0038109   0.196189      -0.0038109  -0.0038109  -0.00692964  -0.0013796
  7702.88      -0.00658622   0.193414      -0.00658622  -0.00658622  -0.0037486   0.0100893
  7703.24      -0.00653613   0.193464      -0.00653613  -0.00653613   0.000405268   0.00785423
  7703.6      -0.00629402   0.193706      -0.00629402  -0.00629402   0.0019143   0.00946833
  7703.96      -0.00515975   0.19484      -0.00515975  -0.00515975   0.007213   0.00392497
  7704.32      -0.00106459   0.198935      -0.00106459  -0.00106459   0.0047599  -0.0129091
  7704.69      -0.00170406   0.198296      -0.00170406  -0.00170406  -0.00215898  -0.0105652
  7705.02      -0.00256508   0.197435      -0.00256508  -0.00256508  -0.00258291   0.00338517
  7705.38      -0.0034966   0.196503      -0.0034966  -0.0034966   0.000190332   0.0261241
  7705.75      -0.00242633   0.197574      -0.00242633  -0.00242633   0.0164615   0.0352896
  7706.11       0.00853679   0.208537       0.00853679   0.00853679   0.025987   0.018102
  7706.47       0.0163363   0.216336       0.0163363   0.0163363   0.0295312   0.00794103
  7706.83       0.0297697   0.22977       0.0297697   0.0297697   0.0316966  -0.00340584
  7707.2       0.0393163   0.239316       0.0393163   0.0393163   0.027062  -0.01969
  7707.56       0.0494167   0.249417       0.0494167   0.0494167   0.0174016  -0.033919
  7707.91       0.0518281   0.251828       0.0518281   0.0518281   0.00267418  -0.0234333
  7708.28       0.0513501   0.25135       0.0513501   0.0513501   0.000459394  -0.00558994
  7708.65       0.0521639   0.252164       0.0521639   0.0521639  -0.00141206  -0.010755
  7708.98       0.0503589   0.250359       0.0503589   0.0503589  -0.0070906   0.00384396
  7709.29       0.0475976   0.247598       0.0475976   0.0475976   0.00106345   0.0241567
  7709.6       0.0510118   0.251012       0.0510118   0.0510118   0.00774163  -0.00665549
  7709.9       0.0523432   0.252343       0.0523432   0.0523432  -0.00301637  -0.0346945
  7710.21       0.0491568   0.249157       0.0491568   0.0491568  -0.0135955  -0.0076039
  7710.51       0.0440363   0.244036       0.0440363   0.0440363  -0.00766235   0.0229913
  7710.82       0.0444674   0.244467       0.0444674   0.0444674   0.000475171   0.0326887
  7711.11       0.0443186   0.244319       0.0443186   0.0443186   0.0117547   0.0130556
  7711.42       0.0514379   0.251438       0.0514379   0.0514379   0.00821713  -0.0247828
  7711.73       0.0493886   0.249389       0.0493886   0.0493886  -0.00353628  -0.0137615
  7712.03       0.0492702   0.24927       0.0492702   0.0492702  -0.000218677  -0.00395622
  7712.33       0.0492556   0.249256       0.0492556   0.0492556  -0.00594166   0.0123993
  7712.64       0.0456161   0.245616       0.0456161   0.0456161   0.0074069   0.044921
  7712.95       0.0538479   0.253848       0.0538479   0.0538479   0.0219093   0.0362719
  7713.23       0.0585645   0.258564       0.0585645   0.0585645   0.0288436   0.0395574
  7713.54       0.0707214   0.270721       0.0707214   0.0707214   0.0450504   0.0570704
  7713.85       0.0864057   0.286406       0.0864057   0.0864057   0.0641131   0.0500741
  7714.16       0.110664       0.310664       0.110664       0.110664       0.0762466   0.0045444
  7714.47       0.13345       0.33345       0.13345       0.13345       0.066917  -0.0386456
  7714.78       0.151885       0.351885       0.151885       0.151885       0.0524409  -0.0471096
  7715.08       0.165281       0.365281       0.165281       0.165281       0.0383214  -0.0106421
  7715.39       0.175222       0.375222       0.175222       0.175222       0.0459599   0.0198362
  7715.67       0.192536       0.392536       0.192536       0.192536       0.0500843  -0.0259587
  7715.97       0.204572       0.404572       0.204572       0.204572       0.030748  -0.0792699
  7716.14       0.206895       0.406895       0.206895       0.206895       0.0130653  -0.00381138
  7716.26       0.208269       0.408269       0.208269       0.208269       0.0296694   0.206244
  7716.37       0.213719       0.413719       0.213719       0.213719       0.0605014   0.150982
  7716.5       0.223032       0.423032       0.223032       0.223032       0.0665091   0.00455322
  7716.62       0.230546       0.430546       0.230546       0.230546       0.0616534  -0.0579285
  7716.73       0.237459       0.437459       0.237459       0.237459       0.0529538  -0.0251624
  7716.87       0.243625       0.443625       0.243625       0.243625       0.0554383  -0.0345882
  7716.99       0.251595       0.451595       0.251595       0.251595       0.0441338  -0.0984326
  7717.1       0.253953       0.453953       0.253953       0.253953       0.0324051   0.0796255
  7717.23       0.259535       0.459535       0.259535       0.259535       0.0636421   0.254837
  7717.35       0.2698       0.4698       0.2698       0.2698       0.0958594  -0.0173702
  7717.46       0.281486       0.481486       0.281486       0.281486       0.0596643  -0.196986
  7717.59       0.284238       0.484238       0.284238       0.284238       0.0481887   0.160264
  7717.71       0.293437       0.493437       0.293437       0.293437       0.0994097   0.193303
  7717.84       0.309091       0.509091       0.309091       0.309091       0.0965144  -0.10395
  7717.96       0.317566       0.517566       0.317566       0.317566       0.0734222   0.0676837
  7718.07       0.326125       0.526125       0.326125       0.326125       0.112217       0.199367
  7718.21       0.345171       0.545171       0.345171       0.345171       0.122467      -0.16711
  7718.33       0.357231       0.557231       0.357231       0.357231       0.0697711  -0.205496
  7718.44       0.361567       0.561567       0.361567       0.361567       0.0741749   0.141518
  7718.57       0.375404       0.575404       0.375404       0.375404       0.104443       0.0596364
  7718.69       0.387887       0.587887       0.387887       0.387887       0.0892033  -0.0225544
  7718.81       0.396099       0.596099       0.396099       0.396099       0.0992103   0.218171
  7718.94       0.411995       0.611995       0.411995       0.411995       0.142219       0.28544
  7719.06       0.431796       0.631796       0.431796       0.431796       0.170856      -0.0664781
  7719.17       0.451634       0.651634       0.451634       0.451634       0.126796      -0.279239
  7719.3       0.462607       0.662607       0.462607       0.462607       0.103001       0.129388
  7719.42       0.47759       0.67759       0.47759       0.47759       0.159402       0.190559
  7719.53       0.500226       0.700226       0.500226       0.500226       0.147973      -0.109585
  7719.67       0.513991       0.713991       0.513991       0.513991       0.132444       0.146101
  7719.79       0.533734       0.733734       0.533734       0.533734       0.184936       0.23244
  7719.9       0.557451       0.757451       0.557451       0.557451       0.187067      -0.0594554
  7720.03       0.579753       0.779753       0.579753       0.579753       0.17031       0.125224
  7720.15       0.60054       0.80054       0.60054       0.60054       0.218749       0.071924
  7720.27       0.630721       0.830721       0.630721       0.630721       0.187069      -0.312715
  7720.4       0.645997       0.845997       0.645997       0.645997       0.142759      -0.0703277
  7720.52       0.666268       0.866268       0.666268       0.666268       0.169557       0.157408
  7720.65       0.688217       0.888217       0.688217       0.688217       0.181953       0.300741
  7720.77       0.711757       0.911757       0.711757       0.711757       0.244742       0.142983
  7720.88       0.745242       0.945242       0.745242       0.745242       0.215268      -0.247493
  7721.01       0.764928       0.964928       0.764928       0.764928       0.183611      -0.015365
  7721.13       0.791879       0.991879       0.791879       0.791879       0.211366       0.0303169
  7721.25       0.814176        1.01418       0.814176       0.814176       0.190675       0.0213783
  7721.38       0.838785        1.03879       0.838785       0.838785       0.216625       0.266089
  7721.5       0.869199        1.0692       0.869136       0.869136       0.258262       0.0178257
  7721.61       0.89896        2.2323       0.899073        2.03241       0.220778      -0.157375
  7721.74       0.923069        2.21533       0.923388        2.01565       0.219862       0.144832
  7721.86       0.953926        2.20029       0.95443        2.00079       0.256986      -0.0878696
  7721.97       0.982175        2.18613       0.982854        1.98681       0.199652      -0.487166
  7722.1        1.00224        2.16983        1.00312        1.97072       0.139092      -0.0309545
  7722.23        1.01723        2.15468        1.0183        1.95575       0.191852       0.286352
  7722.36        1.05097        2.13843        1.05225        1.93971       0.211825      -0.118074
  7722.48        1.07082        2.12367        1.07229        1.92513       0.161979      -0.301208
  7722.59        1.08904        2.10987        1.09068        1.91152       0.141041      -0.262381
  7722.72        1.10537        2.09417        1.10723        1.89602       0.0976959  -0.133023
  7722.85        1.11375        2.07967        1.1158        1.88172       0.107387       0.228786
  7722.96        1.1305        2.06648        1.13272        1.8687       0.151232       0.185529
  7723.05        1.14476        2.05561        1.14712        1.85797       0.14542      -0.152748
  7723.21        1.16758        2.03685        1.1702        1.83946       0.112281      -0.114336
  7723.41        1.18462        2.01478        1.18754        1.8177       0.104831       0.0110168
  7723.6        1.20847        1.99259        1.21169        1.79582       0.116578      -0.0370809
  7723.8        1.23055        1.97073        1.23408        1.77426       0.0902209  -0.158111
  7724        1.24429        1.94886        1.24813        1.75271       0.0538074  -0.164161
  7724.2        1.25196        1.92754        1.25612        1.73169       0.0248847  -0.113022
  7724.4        1.25414        1.90654        1.25861        1.711       0.00905088  -0.0387508
  7724.59        1.25553        1.88606        1.2603        1.69084       0.0096169  -0.0492354
  7724.79        1.25792        1.8658        1.263        1.67088      -0.0102986  -0.0994492
  7725.01        1.25125        1.84364        1.25667        1.64906      -0.031754  -0.0287434
  7725.72        1.22826        1.77394        1.2348        1.58048      -0.037145  -0.00698908
  7726.51        1.19556        1.70207        1.20333        1.50984      -0.0422306   0.000707608
  7727.3        1.16158        1.63392        1.17059        1.44293      -0.0360277   0.00458858
  7728.07        1.1394        1.57276        1.1496        1.38297      -0.035077   0.00521662
  7728.83        1.10798        1.51571        1.11938        1.32711      -0.0280567   0.0159135
  7729.59        1.09656        1.46271        1.10915        1.2753      -0.0107771   0.0146799
  7730.35        1.09157        1.41372        1.10535        1.22751      -0.00569923   0.00448061
  7731.15        1.0877        1.36646        1.10272        1.18148      -0.00381423   0.00434973
  7731.91        1.08563        1.32467        1.10185        1.14088       0.0010733  -0.00258835
  7732.68        1.08934        1.286        1.10676        1.10343      -0.00777958  -0.00575922
  7733.44        1.07372        1.25098        1.09233        1.0696      -0.00774406   0.00494864
  7734.21        1.07746        1.21866        1.09728        1.03848      -0.000183418  -0.0028417
  7734.98        1.07344        1.18982        1.09445        1.01084      -0.0121061  -0.00888386
  7735.77        1.05856        1.16266        1.08082       0.984922      -0.0140511   0.00785693
  7736.54        1.05148        1.13949        1.07493       0.962945       0.000174315   0.005665
  7737.31        1.05883        1.11876        1.08349       0.943428      -0.00536101  -0.014136
  7738.08        1.04322        1.10057        1.06909       0.926433      -0.021581  -0.00813984
  7738.84        1.0257        1.08479        1.05276       0.911849      -0.0178557   0.00753415
  7739.62        1.01576        1.07111        1.04403       0.899379      -0.00999345   0.00170069
  7740.39        1.01027        1.05953        1.03975       0.889004      -0.0152298  -0.00799848
  7741.16       0.992233        1.04989        1.02292       0.880574      -0.0223511  -0.0054091
  7741.95       0.975312        1.04191        1.00724       0.87383      -0.0236896   0.0003118
  7744.45       0.91427        1.02749       0.950104       0.863329      -0.021325   0.00148979
  7746.97       0.868325        1.02585       0.908095       0.865617      -0.0162153   0.00185436
  7749.45       0.833177        1.03212       0.876833       0.87578      -0.0120513   0.00121468
  7751.94       0.808478        1.04154       0.856015       0.889082      -0.0101832   0.000887054
  7754.45       0.782241        1.05072       0.833719       0.9022      -0.00761425   0.00191053
  7756.95       0.7703        1.05894       0.82568       0.914322      -0.000603866   0.00264789
  7759.43       0.779236        1.06629       0.838496       0.925555       0.00555899   0.00165791
  7761.95       0.798084        1.07294       0.86128       0.936133       0.00768237   0.00108916
  7764.47       0.81794        1.07879       0.885079       0.945928       0.0110462   0.000568009
  7766.97       0.853513        1.08382       0.924558       0.954865       0.0105326  -7.45863e-05
  7769.46       0.87054        1.08812       0.94549       0.963066       0.0106737   5.32314e-05
  7771.99       0.907117        1.09174       0.986015       0.970635       0.0108  -0.00123238
  7774.49       0.924821        1.09463        1.00763       0.97744       0.00447975  -0.00178303
  7777       0.92956        1.09686        1.01629       0.983599       0.001867  -0.000554833
  7780.56       0.936161        1.09894        1.02847       0.991248       0.00110969  -0.000830504
  7784.15       0.937497        1.09978        1.03542       0.997704      -0.00407276  -0.000565634
  7787.69       0.907118        1.09947        1.01058        1.00293      -0.00292385   0.000689282
  7791.28       0.916641        1.09806        1.02572        1.00713       0.000843889   0.000168298
  7794.86       0.913168        1.09562        1.02784        1.0103      -0.00171731  -0.000591565
  7798.44       0.904355        1.09224        1.02462        1.01251      -0.00338817  -0.000271216
  7802.02       0.888932        1.08798        1.01479        1.01385      -0.00365732   2.06e-05
  7805.61       0.878103        1.08289        1.00959        1.01438      -0.0032403   0.000178462
  7809.2       0.865638        1.07706        1.00274        1.01417      -0.00237436   0.000450761
  7812.81       0.861019        1.07054        1.00376        1.01329       2.92609e-06  -2.46072e-05
  7816.38       0.865659        1.06349        1.01399        1.01183      -0.00255096  -0.000483419
  7819.99       0.842691        1.05584       0.996672        1.00982      -0.00347044   3.34421e-05
  7823.6       0.840588        1.04774        1.00022        1.00737      -0.00230938  -0.000159736
  7827.22       0.825996        1.03925       0.991284        1.00453      -0.00462517   1.78877e-05
  7830.81       0.807246        1.03051       0.978149        1.00142      -0.00218042   0.000782205
  7834.44       0.810265        1.02147       0.986836       0.998042       0.00101844  -7.59525e-05
  7838.06       0.814625        1.01227       0.996862       0.994511      -0.00273078  -0.000408939
  7841.69       0.790461        1.00298       0.978375       0.99089      -0.00194719   0.000756638
  7845.32       0.800489       0.993671       0.99408       0.987263       0.00276242   0.00129741