File: Dynamic XAS/Dynamic XAS Energy analyzed data/ESweep_0_5 Hz/Same Eo/Normalized Spectra/Ir0_5Hz_ReaddMean_VPhsCorrect_18_182_mV_.csv.nor
# XDI/1.0 Athena/0.9.26
# Element.edge:                  K
# Element.symbol:                Co
# Column.1:                      energy eV
# Column.2:                      norm
# Column.3:                      nbkg
# Column.4:                      flat
# Column.5:                      fbkg
# Column.6:                      nder
# Column.7:                      nsec
# Athena.e0:                     7721.54
# Athena.eshift:                 0
# Athena.rbkg:                   1.0
# Athena.importance:             1
# Athena.standard:               None
# Athena.bkg_kweight:            3
# Athena.edge_step:              1.19556
# Athena.fixed_step:             no
# Athena.pre_edge_range:         -82.964 -19.904
# Athena.pre_edge_line:          0.251771 + 0.000181812 * E
# Athena.normalization_range:    45 125.256
# Athena.post_edge_polynomial:   15.7311 - 0.00166805 * E + 0 * E^2 + 0 * E^3
# Athena.spline_range_energy:    0.000 125.180
# Athena.clamps:                 0 24
# Athena.spline_range_k:         0.000 5.732
# Athena.kweight:                2
# Athena.window:                 hanning
# Athena.phase_correction:       no
# Athena.k_range:                .4 5.35
# Athena.dk:                     .5
# Athena.r_range:                .4 5.1
# Athena.dr:                     .5
# Athena.window:                 hanning
# Athena.plot_multiplier:        1
# Athena.y_offset:               0.2
# ///
#------------------------
#   e         norm        nbkg        flat        fbkg        nder        nsec
  7600.07      -0.213808      -0.013808  -0.213808      -0.213808       0.0120703  -0.000498619
  7610.64      -0.086177   0.113823      -0.086177  -0.086177   0.00679787  -0.000372115
  7624.56      -0.0473349   0.152665      -0.0473349  -0.0473349   0.00295756  -0.000207445
  7637.2      -0.00762725   0.192373      -0.00762725  -0.00762725   0.00128833  -0.000129103
  7649.7      -0.0149423   0.185058      -0.0149423  -0.0149423  -0.000288471   9.27821e-05
  7662.2      -0.0148387   0.185161      -0.0148387  -0.0148387   0.00360779   1.85735e-05
  7674.73       0.0753751   0.275375       0.0753751   0.0753751   0.000176498  -0.000276175
  7687.33      -0.010403   0.189597      -0.010403  -0.010403  -0.00333305   5.77384e-06
  7700.01      -0.0088743   0.191126      -0.0088743  -0.0088743   0.000322443   0.00101871
  7700.39      -0.00619286   0.193807      -0.00619286  -0.00619286   0.00996822   0.00679931
  7700.72      -0.00180684   0.198193      -0.00180684  -0.00180684   0.00514315  -0.0235228
  7701.07      -0.00268008   0.19732      -0.00268008  -0.00268008  -0.00609782  -0.00558271
  7701.43      -0.00616678   0.193833      -0.00616678  -0.00616678   0.00115152   0.016134
  7701.8      -0.00184293   0.198157      -0.00184293  -0.00184293   0.00563162  -0.00527845
  7702.15      -0.00210638   0.197894      -0.00210638  -0.00210638  -0.00265425  -0.0161505
  7702.52      -0.00374603   0.196254      -0.00374603  -0.00374603  -0.00594827  -0.000581181
  7702.88      -0.00641292   0.193587      -0.00641292  -0.00641292  -0.00307502   0.00726503
  7703.24      -0.00598157   0.194018      -0.00598157  -0.00598157  -0.000666587   0.00761834
  7703.6      -0.00689353   0.193106      -0.00689353  -0.00689353   0.0024178   0.0135454
  7703.96      -0.00424317   0.195757      -0.00424317  -0.00424317   0.00907252   0.0023281
  7704.32      -0.000315953   0.199684      -0.000315953  -0.000315953   0.00410568  -0.0166949
  7704.69      -0.00126244   0.198738      -0.00126244  -0.00126244  -0.00304795  -0.0126288
  7705.02      -0.00243428   0.197566      -0.00243428  -0.00243428  -0.00467137   0.00573341
  7705.38      -0.00450438   0.195496      -0.00450438  -0.00450438   0.000931041   0.0294363
  7705.75      -0.00175555   0.198244      -0.00175555  -0.00175555   0.0167877   0.031939
  7706.11       0.00776741   0.207767       0.00776741   0.00776741   0.0242785   0.0153417
  7706.47       0.0157735   0.215774       0.0157735   0.0157735   0.0278644   0.00852042
  7706.83       0.0278019   0.227802       0.0278019   0.0278019   0.0304047  -0.00227006
  7707.2       0.0378169   0.237817       0.0378169   0.0378169   0.0262186  -0.014732
  7707.56       0.0468366   0.246837       0.0468366   0.0468366   0.0197092  -0.0271823
  7707.91       0.0519878   0.251988       0.0519878   0.0519878   0.00667449  -0.023477
  7708.28       0.0516622   0.251662       0.0516622   0.0516622   0.00273538  -0.0085747
  7708.65       0.0539874   0.253987       0.0539874   0.0539874   0.000406381  -0.0129427
  7708.98       0.0519475   0.251947       0.0519475   0.0519475  -0.00635042   0.00233305
  7709.29       0.0498977   0.249898       0.0498977   0.0498977   0.00190887   0.0218977
  7709.6       0.0531195   0.25312       0.0531195   0.0531195   0.00709474  -0.0124642
  7709.9       0.0542468   0.254247       0.0542468   0.0542468  -0.00573168  -0.0376653
  7710.21       0.0495946   0.249595       0.0495946   0.0495946  -0.0160694  -0.00660332
  7710.51       0.0444284   0.244428       0.0444284   0.0444284  -0.00976631   0.0236349
  7710.82       0.0436176   0.243618       0.0436176   0.0436176  -0.00160486   0.0295469
  7711.11       0.0434751   0.243475       0.0434751   0.0434751   0.00778452   0.00682076
  7711.42       0.0482338   0.248234       0.0482338   0.0482338   0.00243986  -0.0227999
  7711.73       0.0449805   0.24498       0.0449805   0.0449805  -0.00628299  -0.010279
  7712.03       0.0443823   0.244382       0.0443823   0.0443823  -0.00386116  -0.00557691
  7712.33       0.0426329   0.242633       0.0426329   0.0426329  -0.00967376   0.0110243
  7712.64       0.038433   0.238433       0.038433   0.038433   0.00291878   0.0392025
  7712.95       0.0444425   0.244443       0.0444425   0.0444425   0.0146318   0.0345988
  7713.23       0.0470803   0.24708       0.0470803   0.0470803   0.0233667   0.0472027
  7713.54       0.058112   0.258112       0.058112   0.058112   0.0422454   0.05706
  7713.85       0.073188   0.273188       0.073188   0.073188   0.0586297   0.0496285
  7714.16       0.0946384   0.294638       0.0946384   0.0946384   0.0731639   0.0167826
  7714.47       0.11833       0.31833       0.11833       0.11833       0.0689846  -0.0371779
  7714.78       0.137133       0.337133       0.137133       0.137133       0.0502623  -0.0601328
  7715.08       0.148839       0.348839       0.148839       0.148839       0.032484  -0.0101619
  7715.39       0.156916       0.356916       0.156916       0.156916       0.0440737   0.0296381
  7715.67       0.174975       0.374975       0.174975       0.174975       0.0500594  -0.0349517
  7715.97       0.18625       0.38625       0.18625       0.18625       0.023592  -0.0844437
  7716.14       0.185992       0.385992       0.185992       0.185992       0.0106242   0.0577745
  7716.26       0.189257       0.389257       0.189257       0.189257       0.0399422   0.189573
  7716.37       0.195179       0.395179       0.195179       0.195179       0.0542259   0.0924176
  7716.5       0.202488       0.402488       0.202488       0.202488       0.0624921   0.0616668
  7716.62       0.21099       0.41099       0.21099       0.21099       0.0698276  -0.0823918
  7716.73       0.218828       0.418828       0.218828       0.218828       0.0432124  -0.161275
  7716.87       0.221663       0.421663       0.221663       0.221663       0.0299926  -0.0231583
  7716.99       0.226476       0.426476       0.226476       0.226476       0.037307   0.0328105
  7717.1       0.230393       0.430393       0.230393       0.230393       0.0376703   0.0598399
  7717.23       0.235705       0.435705       0.235705       0.235705       0.0519678   0.200181
  7717.35       0.243333       0.443333       0.243333       0.243333       0.0875153  -0.0295453
  7717.46       0.255746       0.455746       0.255746       0.255746       0.0452019  -0.188617
  7717.59       0.254272       0.454272       0.254272       0.254272       0.04187   0.186623
  7717.71       0.26613       0.46613       0.26613       0.26613       0.0914846   0.164579
  7717.84       0.277143       0.477143       0.277143       0.277143       0.0830148  -0.0480039
  7717.96       0.286884       0.486884       0.286884       0.286884       0.0794836   0.10551
  7718.07       0.295583       0.495583       0.295583       0.295583       0.107493       0.0762734
  7718.21       0.313327       0.513327       0.313327       0.313327       0.0982468  -0.204085
  7718.33       0.320538       0.520538       0.320538       0.320538       0.0556555  -0.0123384
  7718.44       0.326406       0.526406       0.326406       0.326406       0.0953473   0.199494
  7718.57       0.343898       0.543898       0.343898       0.343898       0.104531      -0.0979954
  7718.69       0.352748       0.552748       0.352748       0.352748       0.0706525  -0.0672671
  7718.81       0.360289       0.560289       0.360289       0.360289       0.0889255   0.300492
  7718.94       0.374357       0.574357       0.374357       0.374357       0.143672       0.272098
  7719.06       0.396351       0.596351       0.396351       0.396351       0.157222      -0.105978
  7719.17       0.410832       0.610832       0.410832       0.410832       0.119085      -0.159414
  7719.3       0.425289       0.625289       0.425289       0.425289       0.118484       0.11531
  7719.42       0.44069       0.64069       0.44069       0.44069       0.148143       0.0842926
  7719.53       0.460251       0.660251       0.460251       0.460251       0.138378      -0.063111
  7719.67       0.474731       0.674731       0.474731       0.474731       0.132618       0.0580957
  7719.79       0.493803       0.693803       0.493803       0.493803       0.153076       0.23431
  7719.9       0.510704       0.710704       0.510704       0.510704       0.187681       0.145485
  7720.03       0.539972       0.739972       0.539972       0.539972       0.188865       0.06897
  7720.15       0.558487       0.758487       0.558487       0.558487       0.20513      -0.0073769
  7720.27       0.587768       0.787768       0.587768       0.587768       0.187146      -0.207376
  7720.4       0.603964       0.803964       0.603963       0.603963       0.154738      -0.0710373
  7720.52       0.626297       0.826297       0.626297       0.626297       0.169458       0.145681
  7720.65       0.646159       0.846159       0.646159       0.646159       0.191012       0.208466
  7720.77       0.674051       0.874051       0.674051       0.674051       0.221574       0.0752507
  7720.88       0.697785       0.897785       0.697785       0.697785       0.208546      -0.0170267
  7721.01       0.725561       0.925561       0.725561       0.725561       0.217369      -0.0456001
  7721.13       0.752997       0.952997       0.752997       0.752997       0.196963      -0.0359295
  7721.25       0.771454       0.971454       0.771454       0.771454       0.208997       0.207928
  7721.38       0.80441        1.00441       0.80441       0.80441       0.248114       0.233062
  7721.5       0.834475        1.03447       0.834413       0.834413       0.268195      -0.0815738
  7721.61       0.8669        2.27197       0.867011        2.07208       0.229107      -0.196078
  7721.74       0.890377        2.25442       0.890692        2.05474       0.220352       0.2254
  7721.86       0.921988        2.23887       0.922486        2.03937       0.285457      -0.052782
  7721.97       0.956032        2.22423       0.956703        2.0249       0.208212      -0.575843
  7722.1       0.972375        2.20738       0.973248        2.00826       0.146103       0.0805545
  7722.23       0.99285        2.19171       0.993911        1.99278       0.228512       0.348129
  7722.36        1.03042        2.17491        1.03168        1.97618       0.234528      -0.192031
  7722.48        1.05219        2.15965        1.05364        1.9611       0.179928      -0.264346
  7722.59        1.0727        2.14539        1.07433        1.94702       0.172406      -0.210868
  7722.72        1.09442        2.12915        1.09626        1.93098       0.128265      -0.19799
  7722.85        1.10515        2.11416        1.10717        1.91619       0.122315       0.182246
  7722.96        1.12305        2.10052        1.12524        1.90272       0.170911       0.276057
  7723.05        1.14019        2.08928        1.14253        1.89162       0.178907      -0.112192
  7723.21        1.16867        2.06988        1.17126        1.87247       0.142302      -0.15512
  7723.41        1.19071        2.04707        1.19359        1.84996       0.123839      -0.0251778
  7723.6        1.21697        2.02412        1.22016        1.82732       0.132483      -0.050839
  7723.8        1.2429        2.00152        1.2464        1.80501       0.103809      -0.14752
  7724        1.25818        1.9789        1.26198        1.78271       0.0739172  -0.167532
  7724.2        1.27232        1.95686        1.27644        1.76097       0.037131  -0.157844
  7724.4        1.27288        1.93514        1.2773        1.73956       0.0114111  -0.0438038
  7724.59        1.27682        1.91397        1.28154        1.71869       0.0198723  -0.0473569
  7724.79        1.28069        1.89302        1.28572        1.69804      -0.00720014  -0.13448
  7725.01        1.27382        1.8701        1.27919        1.67547      -0.0360713  -0.0383399
  7725.72        1.247        1.79803        1.25347        1.6045      -0.0430096  -0.00859518
  7726.51        1.20935        1.7237        1.21704        1.53139      -0.0489555   2.87513e-05
  7727.3        1.1697        1.65321        1.17861        1.46213      -0.0429642   0.00630424
  7728.07        1.14237        1.58995        1.15247        1.40005      -0.0391272   0.00863113
  7728.83        1.10991        1.53094        1.12119        1.34222      -0.0297758   0.0184682
  7729.59        1.0969        1.47611        1.10936        1.28857      -0.0109262   0.0178677
  7730.35        1.09327        1.42542        1.10691        1.23906      -0.00256327   0.00708654
  7731.15        1.09292        1.37652        1.10778        1.19138       8.63232e-05   0.00355407
  7731.91        1.09341        1.33327        1.10945        1.14932       0.00297041  -0.00494905
  7732.68        1.09747        1.29326        1.11471        1.11049      -0.00749562  -0.0073027
  7733.44        1.08193        1.25701        1.10035        1.07542      -0.00821002   0.00412873
  7734.21        1.08487        1.22354        1.10448        1.04315      -0.00115802  -0.00348398
  7734.98        1.08015        1.19368        1.10094        1.01447      -0.0135579  -0.00999559
  7735.77        1.0637        1.16555        1.08573       0.987573      -0.0167611   0.00773806
  7736.54        1.05396        1.14154        1.07716       0.96475      -0.00146335   0.0082389
  7737.31        1.06146        1.12007        1.08586       0.944468      -0.00412267  -0.012169
  7738.08        1.04761        1.10121        1.0732       0.926795      -0.0201914  -0.00912609
  7738.84        1.03047        1.08484        1.05724       0.911614      -0.0181312   0.00631579
  7739.62        1.01973        1.07065        1.04769       0.898617      -0.0104777   0.00244961
  7740.39        1.01429        1.05862        1.04345       0.887786      -0.014349  -0.00780374
  7741.16       0.997556        1.04861        1.02792       0.878968      -0.0225345  -0.00663703
  7741.95       0.979044        1.04031        1.01063       0.87189      -0.0247293   0.000321888
  7744.45       0.916172        1.02525       0.951623       0.860705      -0.0214752   0.00169729
  7746.97       0.871303        1.02341       0.910649       0.862756      -0.0162141   0.00161162
  7749.45       0.835085        1.02978       0.878275       0.872973      -0.0134155   0.0010096
  7751.94       0.804682        1.03943       0.851711       0.886464      -0.0112004   0.00111587
  7754.45       0.779061        1.04887       0.82999       0.899794      -0.00783389   0.00204341
  7756.95       0.765403        1.05734       0.82019       0.912128      -0.000954756   0.00263778
  7759.43       0.774311        1.06495       0.832937       0.923572       0.00528905   0.00171871
  7761.95       0.791837        1.07185       0.854358       0.934366       0.00763534   0.00125061
  7764.47       0.812778        1.07795       0.8792       0.944376       0.0115896   0.000738734
  7766.97       0.849994        1.08324       0.920279       0.953524       0.0113423  -0.000131294
  7769.46       0.869421        1.08778       0.94357       0.961933       0.010934  -3.94899e-05
  7771.99       0.904904        1.09165       0.98296       0.969708       0.011144  -0.00110209
  7774.49       0.925431        1.09479        1.00736       0.976712       0.00539486  -0.00177673
  7777       0.931933        1.09726        1.01774       0.983064       0.00224257  -0.000697407
  7780.56       0.939052        1.09965        1.03038       0.990974       0.00115881  -0.000875107
  7784.15       0.94022        1.1008        1.03709       0.997675      -0.0040162  -0.000607941
  7787.69       0.910413        1.10077        1.01277        1.00312      -0.00317642   0.000681411
  7791.28       0.917563        1.09961        1.02547        1.00752       0.000844307   0.000250909
  7794.86       0.916466        1.09741        1.02992        1.01086      -0.00137765  -0.000611047
  7798.44       0.907707        1.09423        1.02669        1.01321      -0.00352712  -0.000304491
  7802.02       0.891236        1.09013        1.01575        1.01465      -0.00355567   9.88027e-06
  7805.61       0.882185        1.08516        1.01227        1.01525      -0.0034562   0.000130478
  7809.2       0.86639        1.07942        1.00203        1.01506      -0.00261766   0.00051035
  7812.81       0.863351        1.07295        1.00457        1.01417       0.000215763  -1.04021e-05
  7816.38       0.867938        1.06589        1.01468        1.01264      -0.00269232  -0.000543429
  7819.99       0.844006        1.05818       0.996342        1.01052      -0.00368878   4.21094e-05
  7823.6       0.84129        1.04997       0.999213        1.0079      -0.00238812  -0.00012645
  7827.22       0.826743        1.04131       0.990264        1.00483      -0.00460288   1.5645e-05
  7830.81       0.808108        1.03235       0.977186        1.00142      -0.00227534   0.000801247
  7834.44       0.810326        1.02301       0.985011       0.997692       0.00117811  -3.17796e-05
  7838.06       0.816645        1.01345       0.996934       0.993737      -0.00250561  -0.0004418
  7841.69       0.792155        1.00371       0.978061       0.98962      -0.00202582   0.000716302
  7845.32       0.801937       0.993898       0.99346       0.98542       0.00269474   0.00130043