File: Dynamic XAS/Dynamic XAS Energy analyzed data/ESweep_0_5 Hz/Same Eo/Normalized Spectra/Ir0_5Hz_ReaddMean_VPhsCorrect_15_232_mV_.csv.nor
# XDI/1.0 Athena/0.9.26
# Element.edge:                  K
# Element.symbol:                Co
# Column.1:                      energy eV
# Column.2:                      norm
# Column.3:                      nbkg
# Column.4:                      flat
# Column.5:                      fbkg
# Column.6:                      nder
# Column.7:                      nsec
# Athena.e0:                     7721.54
# Athena.eshift:                 0
# Athena.rbkg:                   1.0
# Athena.importance:             1
# Athena.standard:               None
# Athena.bkg_kweight:            3
# Athena.edge_step:              1.19607
# Athena.fixed_step:             no
# Athena.pre_edge_range:         -82.964 -19.904
# Athena.pre_edge_line:          0.223493 + 0.000185505 * E
# Athena.normalization_range:    45 125.256
# Athena.post_edge_polynomial:   15.7797 - 0.00167424 * E + 0 * E^2 + 0 * E^3
# Athena.spline_range_energy:    0.000 125.180
# Athena.clamps:                 0 24
# Athena.spline_range_k:         0.000 5.732
# Athena.kweight:                2
# Athena.window:                 hanning
# Athena.phase_correction:       no
# Athena.k_range:                .4 5.35
# Athena.dk:                     .5
# Athena.r_range:                .4 5.1
# Athena.dr:                     .5
# Athena.window:                 hanning
# Athena.plot_multiplier:        1
# Athena.y_offset:               0.2
# ///
#------------------------
#   e         norm        nbkg        flat        fbkg        nder        nsec
  7600.07      -0.213913      -0.0139131  -0.213913      -0.213913       0.0120236  -0.000495989
  7610.64      -0.0867754   0.113225      -0.0867754  -0.0867754   0.00677903  -0.000368824
  7624.56      -0.0479015   0.152098      -0.0479015  -0.0479015   0.00299148  -0.000206239
  7637.2      -0.00732478   0.192675      -0.00732478  -0.00732478   0.00130152  -0.000130929
  7649.7      -0.0151775   0.184823      -0.0151775  -0.0151775  -0.00030048   9.20682e-05
  7662.2      -0.0148365   0.185164      -0.0148365  -0.0148365   0.00360313   1.91521e-05
  7674.73       0.0750233   0.275023       0.0750233   0.0750233   0.000178973  -0.00027355
  7687.33      -0.0103385   0.189661      -0.0103385  -0.0103385  -0.00327172   6.58519e-06
  7700.01      -0.00767604   0.192324      -0.00767604  -0.00767604   0.000345427   0.000751347
  7700.39      -0.00582831   0.194172      -0.00582831  -0.00582831   0.00653861   0.00607092
  7700.72      -0.00304016   0.19696      -0.00304016  -0.00304016   0.00464971  -0.0167322
  7701.07      -0.00265256   0.197347      -0.00265256  -0.00265256  -0.00488948  -0.00450281
  7701.43      -0.00653614   0.193464      -0.00653614  -0.00653614   0.0014302   0.0152974
  7701.8      -0.00161281   0.198387      -0.00161281  -0.00161281   0.00623174  -0.00878854
  7702.15      -0.00204305   0.197957      -0.00204305  -0.00204305  -0.00490634  -0.0183441
  7702.52      -0.00513065   0.194869      -0.00513065  -0.00513065  -0.00692098   0.00512701
  7702.88      -0.00705384   0.192946      -0.00705384  -0.00705384  -0.00119438   0.0103582
  7703.24      -0.00599897   0.194001      -0.00599897  -0.00599897   0.000609419   0.00495422
  7703.6      -0.00661445   0.193386      -0.00661445  -0.00661445   0.00237761   0.0095679
  7703.96      -0.00428946   0.195711      -0.00428946  -0.00428946   0.00748874   0.00342968
  7704.32      -0.00118511   0.198815      -0.00118511  -0.00118511   0.00486413  -0.0145562
  7704.69      -0.000758099   0.199242      -0.000758099  -0.000758099  -0.00307907  -0.0145351
  7705.02      -0.00332507   0.196675      -0.00332507  -0.00332507  -0.00523777   0.00560008
  7705.38      -0.00439311   0.195607      -0.00439311  -0.00439311   0.000807387   0.0314717
  7705.75      -0.00273648   0.197264      -0.00273648  -0.00273648   0.0177051   0.0324116
  7706.11       0.00854932   0.208549       0.00854932   0.00854932   0.0245002   0.0144018
  7706.47       0.0149527   0.214953       0.0149527   0.0149527   0.0281032   0.0103273
  7706.83       0.0287555   0.228756       0.0287555   0.0287555   0.0319256  -0.00354674
  7707.2       0.0380987   0.238099       0.0380987   0.0380987   0.0255318  -0.0195462
  7707.56       0.0472916   0.247292       0.0472916   0.0472916   0.017735  -0.0264158
  7707.91       0.0508502   0.25085       0.0508502   0.0508502   0.00653884  -0.019361
  7708.28       0.0520192   0.252019       0.0520192   0.0520192   0.003737  -0.0100861
  7708.65       0.0535819   0.253582       0.0535819   0.0535819  -0.00083409  -0.0147973
  7708.98       0.0514336   0.251434       0.0514336   0.0514336  -0.00665073   0.00680331
  7709.29       0.0492989   0.249299       0.0492989   0.0492989   0.00354724   0.0221773
  7709.6       0.0536117   0.253612       0.0536117   0.0536117   0.00696614  -0.0157648
  7709.9       0.0535691   0.253569       0.0535691   0.0535691  -0.00611659  -0.035832
  7710.21       0.04985   0.24985       0.04985   0.04985  -0.0150705  -0.00646146
  7710.51       0.044361   0.244361       0.044361   0.044361  -0.0100645   0.0204119
  7710.82       0.0436905   0.24369       0.0436905   0.0436905  -0.00257842   0.0299375
  7711.11       0.0428294   0.242829       0.0428294   0.0428294   0.00771836   0.0100291
  7711.42       0.0482674   0.248267       0.0482674   0.0482674   0.00336884  -0.0222613
  7711.73       0.044908   0.244908       0.044908   0.044908  -0.00601689  -0.0127884
  7712.03       0.0445791   0.244579       0.0445791   0.0445791  -0.00447047  -0.00903202
  7712.33       0.04219   0.24219       0.04219   0.04219  -0.0115084   0.0162135
  7712.64       0.0375015   0.237501       0.0375015   0.0375015   0.00550082   0.0453181
  7712.95       0.0456005   0.2456       0.0456005   0.0456005   0.0165888   0.0262211
  7713.23       0.0473055   0.247305       0.0473055   0.0473055   0.0209975   0.0425004
  7713.54       0.057884   0.257884       0.057884   0.057884   0.0414516   0.0645089
  7713.85       0.0729226   0.272923       0.0729226   0.0729226   0.060864   0.0504303
  7714.16       0.0958023   0.295802       0.0958023   0.0958023   0.0728697   0.0111405
  7714.47       0.117883       0.317883       0.117883       0.117883       0.0677377  -0.0348149
  7714.78       0.137529       0.337529       0.137529       0.137529       0.0514237  -0.0562703
  7715.08       0.149097       0.349097       0.149097       0.149097       0.0335816  -0.0158968
  7715.39       0.15798       0.35798       0.15798       0.15798       0.0417425   0.0225854
  7715.67       0.173851       0.373851       0.173851       0.173851       0.0469747  -0.0197612
  7715.97       0.185507       0.385507       0.185507       0.185507       0.0301625  -0.0724723
  7716.14       0.187937       0.387937       0.187937       0.187937       0.0131301   0.00891951
  7716.26       0.189223       0.389223       0.189223       0.189223       0.0326867   0.192621
  7716.37       0.195454       0.395454       0.195454       0.195454       0.0574329   0.0829724
  7716.5       0.203236       0.403236       0.203236       0.203236       0.052932   0.0158761
  7716.62       0.208846       0.408846       0.208846       0.208846       0.0614495  -0.0134521
  7716.73       0.217616       0.417616       0.217616       0.217616       0.0497842  -0.0995088
  7716.87       0.221143       0.421143       0.221143       0.221143       0.0368709  -0.0434715
  7716.99       0.227018       0.427018       0.227018       0.227018       0.0386989   0.00317316
  7717.1       0.230198       0.430198       0.230198       0.230198       0.0376134   0.0627466
  7717.23       0.236233       0.436233       0.236233       0.236233       0.0540718   0.209168
  7717.35       0.243662       0.443662       0.243662       0.243662       0.0896963  -0.00627903
  7717.46       0.256773       0.456773       0.256773       0.256773       0.0526339  -0.214466
  7717.59       0.2564       0.4564       0.2564       0.2564       0.0377955   0.152761
  7717.71       0.266147       0.466147       0.266147       0.266147       0.0905186   0.176172
  7717.84       0.279029       0.479029       0.279029       0.279029       0.0818386  -0.0997747
  7717.96       0.286606       0.486606       0.286606       0.286606       0.0655749   0.120079
  7718.07       0.294243       0.494243       0.294243       0.294243       0.109697       0.182698
  7718.21       0.313592       0.513592       0.313592       0.313592       0.110519      -0.194226
  7718.33       0.322315       0.522315       0.322315       0.322315       0.0603636  -0.116799
  7718.44       0.327777       0.527777       0.327777       0.327777       0.083071   0.185929
  7718.57       0.342667       0.542667       0.342667       0.342667       0.105916      -0.0284195
  7718.69       0.354468       0.554468       0.354468       0.354468       0.0759092  -0.0768015
  7718.81       0.360278       0.560278       0.360278       0.360278       0.0880983   0.277104
  7718.94       0.375876       0.575876       0.375876       0.375876       0.143246       0.306937
  7719.06       0.396233       0.596233       0.396233       0.396233       0.165139      -0.0766403
  7719.17       0.414189       0.614189       0.414189       0.414189       0.125465      -0.302312
  7719.3       0.426721       0.626721       0.426721       0.426721       0.0916776   0.0763841
  7719.42       0.437291       0.637291       0.437291       0.437291       0.144714       0.233146
  7719.53       0.460873       0.660873       0.460873       0.460873       0.1467      -0.0891851
  7719.67       0.473379       0.67338       0.47338       0.47338       0.122774       0.0832591
  7719.79       0.491935       0.691935       0.491935       0.491935       0.167765       0.309002
  7719.9       0.512804       0.712804       0.512804       0.512804       0.19539       0.0361481
  7720.03       0.540001       0.740001       0.540001       0.540001       0.176657       0.0826391
  7720.15       0.557498       0.757498       0.557498       0.557498       0.216297       0.0929147
  7720.27       0.590398       0.790398       0.590398       0.590398       0.198306      -0.357803
  7720.4       0.605687       0.805687       0.605687       0.605687       0.129351      -0.149461
  7720.52       0.622607       0.822607       0.622607       0.622607       0.16109       0.255779
  7720.65       0.645798       0.845798       0.645798       0.645798       0.19304       0.319564
  7720.77       0.670867       0.870867       0.670867       0.670867       0.240981       0.116575
  7720.88       0.701947       0.901947       0.701947       0.701947       0.220202      -0.197095
  7721.01       0.725257       0.925257       0.725257       0.725257       0.192299      -0.0721418
  7721.13       0.750791       0.950791       0.750791       0.750791       0.201878       0.109973
  7721.25       0.772294       0.972294       0.772294       0.772294       0.217923       0.141392
  7721.38       0.8044        1.0044       0.8044       0.8044       0.236661       0.189336
  7721.5       0.832406        1.03241       0.832344       0.832344       0.266014       0.0353941
  7721.61       0.866381        2.27075       0.866493        2.07086       0.244908      -0.172486
  7721.74       0.892164        2.25322       0.892481        2.05354       0.223927       0.0993151
  7721.86       0.922363        2.23769       0.922864        2.03819       0.269736      -0.0356102
  7721.97       0.954203        2.22307       0.954878        2.02374       0.215737      -0.456334
  7722.1       0.974571        2.20624       0.975448        2.00711       0.159304       0.00784472
  7722.23       0.994347        2.19058       0.995414        1.99165       0.217714       0.273575
  7722.36        1.02987        2.1738        1.03114        1.97507       0.228792      -0.124316
  7722.48        1.05223        2.15856        1.05369        1.96002       0.186262      -0.272924
  7722.59        1.07364        2.14431        1.07528        1.94595       0.164654      -0.248985
  7722.72        1.09257        2.12809        1.09441        1.92993       0.12526      -0.132461
  7722.85        1.10533        2.11312        1.10736        1.91515       0.131142       0.194936
  7722.96        1.12326        2.0995        1.12546        1.9017       0.170876       0.222684
  7723.05        1.14036        2.08827        1.14271        1.89062       0.176792      -0.121175
  7723.21        1.16834        2.06889        1.17094        1.87149       0.139976      -0.150062
  7723.41        1.19005        2.0461        1.19296        1.84901       0.12352      -0.0267867
  7723.6        1.21651        2.02318        1.21972        1.82639       0.129529      -0.044299
  7723.8        1.24109        2.0006        1.2446        1.80411       0.106066      -0.139304
  7724        1.25862        1.97801        1.26245        1.78184       0.0742255  -0.179767
  7724.2        1.27063        1.95599        1.27476        1.76012       0.034519  -0.151872
  7724.4        1.27229        1.9343        1.27673        1.73874       0.0140842  -0.052614
  7724.59        1.27618        1.91315        1.28092        1.7179       0.013789  -0.0476694
  7724.79        1.27771        1.89222        1.28276        1.69727      -0.00464988  -0.116424
  7725.01        1.27425        1.86933        1.27964        1.67472      -0.0346435  -0.0423682
  7725.72        1.24535        1.79733        1.25186        1.60384      -0.0442218  -0.00903892
  7726.51        1.20796        1.72309        1.21568        1.53081      -0.0481928   0.000772545
  7727.3        1.16926        1.65268        1.17822        1.46164      -0.043002   0.00500746
  7728.07        1.14092        1.58948        1.15106        1.39963      -0.0403862   0.00955139
  7728.83        1.10755        1.53054        1.11888        1.34187      -0.0284074   0.0210398
  7729.59        1.09754        1.47576        1.11006        1.28828      -0.00825844   0.0167088
  7730.35        1.09497        1.42513        1.10867        1.23884      -0.00295987   0.00445244
  7731.15        1.09294        1.37628        1.10788        1.19122      -0.00133935   0.00390279
  7731.91        1.09288        1.33308        1.10901        1.1492       0.00311678  -0.00421346
  7732.68        1.09771        1.2931        1.11503        1.11042      -0.00779436  -0.00821626
  7733.44        1.08095        1.25689        1.09946        1.07539      -0.00946231   0.00417591
  7734.21        1.08319        1.22346        1.1029        1.04316      -0.00138434  -0.00249133
  7734.98        1.07883        1.19362        1.09972        1.01451      -0.0132865  -0.00923422
  7735.77        1.06245        1.16551        1.08458       0.987648      -0.015799   0.00754063
  7736.54        1.05413        1.14153        1.07745       0.964852      -0.00150049   0.00684147
  7737.31        1.06015        1.12008        1.08467       0.944594      -0.00530415  -0.0122615
  7738.08        1.04597        1.10123        1.07168       0.926942      -0.0203709  -0.00825174
  7738.84        1.02888        1.08487        1.05578       0.911778      -0.0179706   0.00677907
  7739.62        1.01833        1.07069        1.04644       0.898796      -0.00994468   0.00210216
  7740.39        1.01352        1.05867        1.04283       0.887979      -0.0147248  -0.00716653
  7741.16       0.995581        1.04866        1.02609       0.87917      -0.021017  -0.00566874
  7741.95       0.980652        1.04036        1.01239       0.8721      -0.0235908  -0.000268196
  7744.45       0.917944        1.0253       0.953569       0.860928      -0.0218996   0.0013904
  7746.97       0.870782        1.02344       0.910321       0.862975      -0.0166151   0.00177326
  7749.45       0.834851        1.02978       0.878253       0.87318      -0.0130315   0.00109267
  7751.94       0.806068        1.03939       0.853328       0.886655      -0.011189   0.00100384
  7754.45       0.778884        1.04879       0.830063       0.89997      -0.00801036   0.00205231
  7756.95       0.765904        1.05723       0.82096       0.91229      -0.000898666   0.00264217
  7759.43       0.774413        1.06481       0.833328       0.923722       0.00513441   0.0016935
  7761.95       0.791565        1.07168       0.854394       0.934505       0.00756545   0.00120967
  7764.47       0.812528        1.07776       0.879276       0.944505       0.0112287   0.000725382
  7766.97       0.847911        1.08301       0.918542       0.953644       0.0112054   7.50636e-05
  7769.46       0.868488        1.08753       0.943001       0.962046       0.0116036   3.81232e-05
  7771.99       0.906184        1.09138       0.984624       0.969815       0.0113969  -0.001281
  7774.49       0.925768        1.09448        1.0081       0.976813       0.00516529  -0.00187172
  7777       0.932062        1.09693        1.01829       0.98316       0.00201957  -0.000696838
  7780.56       0.938035        1.09929        1.02981       0.991065       0.0009327  -0.000843129
  7784.15       0.938733        1.10041        1.03608       0.997762      -0.00401049  -0.00055519
  7787.69       0.909437        1.10035        1.0123        1.00321      -0.00302636   0.000678156
  7791.28       0.917146        1.09916        1.02559        1.0076       0.000826799   0.0002237
  7794.86       0.915364        1.09693        1.02937        1.01094      -0.00142266  -0.000586317
  7798.44       0.906968        1.09372        1.02653        1.01329      -0.00336771  -0.000271798
  7802.02       0.891275        1.0896        1.0164        1.01473      -0.00336683  -1.17308e-05
  7805.61       0.882801        1.0846        1.01353        1.01533      -0.00345191   0.000110684
  7809.2       0.866459        1.07884        1.00277        1.01514      -0.00257112   0.000498375
  7812.81       0.864302        1.07233        1.00622        1.01425       0.000133895  -4.14613e-05
  7816.38       0.86742        1.06525        1.01489        1.01272      -0.00286869  -0.000551345
  7819.99       0.843691        1.05751       0.996775        1.0106      -0.00382752   1.97056e-05
  7823.6       0.83977        1.04927       0.998469        1.00797      -0.00272634  -7.67295e-05
  7827.22       0.823982        1.04057       0.988307        1.0049      -0.00438219   9.45019e-05
  7830.81       0.808179        1.03158       0.978087        1.00149      -0.00204507   0.000716248
  7834.44       0.809227        1.0222       0.98477       0.997747       0.000785538  -5.21797e-05
  7838.06       0.813871        1.01261       0.995046       0.993783      -0.00242317  -0.000341846
  7841.69       0.791654        1.00283       0.978473       0.989654      -0.00169353   0.000710245
  7845.32       0.801576       0.992976       0.994039       0.98544       0.00273322   0.00121949