File: Dynamic XAS/Dynamic XAS Energy analyzed data/ESweep_0_5 Hz/Same Eo/Normalized Spectra/Ir0_5Hz_ReaddMean_VPhsCorrect_33_-219_mV_.csv.nor
# XDI/1.0 Athena/0.9.26
# Element.edge:                  K
# Element.symbol:                Co
# Column.1:                      energy eV
# Column.2:                      norm
# Column.3:                      nbkg
# Column.4:                      flat
# Column.5:                      fbkg
# Column.6:                      nder
# Column.7:                      nsec
# Athena.e0:                     7721.54
# Athena.eshift:                 0
# Athena.rbkg:                   1.0
# Athena.importance:             1
# Athena.standard:               None
# Athena.bkg_kweight:            3
# Athena.edge_step:              1.19275
# Athena.fixed_step:             no
# Athena.pre_edge_range:         -82.964 -19.904
# Athena.pre_edge_line:          -0.005327 + 0.000215331 * E
# Athena.normalization_range:    45 125.256
# Athena.post_edge_polynomial:   15.5616 - 0.00164624 * E + 0 * E^2 + 0 * E^3
# Athena.spline_range_energy:    0.000 125.180
# Athena.clamps:                 0 24
# Athena.spline_range_k:         0.000 5.732
# Athena.kweight:                2
# Athena.window:                 hanning
# Athena.phase_correction:       no
# Athena.k_range:                .4 5.35
# Athena.dk:                     .5
# Athena.r_range:                .4 5.1
# Athena.dr:                     .5
# Athena.window:                 hanning
# Athena.plot_multiplier:        1
# Athena.y_offset:               0.2
# ///
#------------------------
#   e         norm        nbkg        flat        fbkg        nder        nsec
  7600.07      -0.211907      -0.011907  -0.211907      -0.211907       0.0121047  -0.000502328
  7610.64      -0.0839123   0.116088      -0.0839123  -0.0839123   0.00679305  -0.000377136
  7624.56      -0.045552   0.154448      -0.045552  -0.045552   0.00286897  -0.000210781
  7637.2      -0.00771525   0.192285      -0.00771525  -0.00771525   0.00119491  -0.00012875
  7649.7      -0.0155084   0.184492      -0.0155084  -0.0155084  -0.000368187   0.000104632
  7662.2      -0.0169196   0.18308      -0.0169196  -0.0169196   0.00381061   2.45741e-05
  7674.73       0.0798865   0.279886       0.0798865   0.0798865   0.000247002  -0.000290524
  7687.33      -0.0107119   0.189288      -0.0107119  -0.0107119  -0.00349082   3.69202e-06
  7700.01      -0.00835104   0.191649      -0.00835104  -0.00835104   0.000340325   0.000935011
  7700.39      -0.00626827   0.193732      -0.00626827  -0.00626827   0.00871762   0.00633185
  7700.72      -0.00217025   0.19783      -0.00217025  -0.00217025   0.00482961  -0.022545
  7701.07      -0.00296964   0.19703      -0.00296964  -0.00296964  -0.0066806  -0.00551515
  7701.43      -0.00694687   0.193053      -0.00694687  -0.00694687   0.000886278   0.0179093
  7701.8      -0.00232532   0.197675      -0.00232532  -0.00232532   0.0063395  -0.0060256
  7702.15      -0.0023761   0.197624      -0.0023761  -0.0023761  -0.00345818  -0.0173368
  7702.52      -0.00480484   0.195195      -0.00480484  -0.00480484  -0.00609102   0.000675365
  7702.88      -0.006786   0.193214      -0.006786  -0.006786  -0.00296922   0.00740756
  7703.24      -0.00696346   0.193037      -0.00696346  -0.00696346  -0.000705727   0.00841293
  7703.6      -0.00729482   0.192705      -0.00729482  -0.00729482   0.00309651   0.0127684
  7703.96      -0.00473707   0.195263      -0.00473707  -0.00473707   0.00847478   0.00283738
  7704.32      -0.00115061   0.198849      -0.00115061  -0.00115061   0.00515361  -0.0149632
  7704.69      -0.000995548   0.199004      -0.000995548  -0.000995548  -0.00238853  -0.0145273
  7705.02      -0.00281064   0.197189      -0.00281064  -0.00281064  -0.00494288   0.00415081
  7705.38      -0.00442591   0.195574      -0.00442591  -0.00442591   0.000492131   0.0293982
  7705.75      -0.00245188   0.197548      -0.00245188  -0.00245188   0.0164884   0.0345029
  7706.11       0.00762713   0.207627       0.00762713   0.00762713   0.0257138   0.0182592
  7706.47       0.0161135   0.216113       0.0161135   0.0161135   0.0296716   0.0103659
  7706.83       0.028961   0.228961       0.028961   0.028961   0.0331668  -0.00584322
  7707.2       0.0401594   0.240159       0.0401594   0.0401594   0.0254353  -0.0234543
  7707.56       0.047427   0.247427       0.047427   0.047427   0.016139  -0.0287106
  7707.91       0.0517633   0.251763       0.0517633   0.0517633   0.00479234  -0.0201356
  7708.28       0.0508919   0.250892       0.0508919   0.0508919   0.00158095  -0.00802244
  7708.65       0.052919   0.252919       0.052919   0.052919  -0.00107207  -0.0124593
  7708.98       0.0501393   0.250139       0.0501393   0.0501393  -0.00716547   0.00718113
  7709.29       0.0483044   0.248304       0.0483044   0.0483044   0.00355258   0.0230194
  7709.6       0.0523206   0.252321       0.0523206   0.0523206   0.00696845  -0.014991
  7709.9       0.0525761   0.252576       0.0525761   0.0525761  -0.00563693  -0.0314975
  7710.21       0.0488538   0.248854       0.0488538   0.0488538  -0.0124025  -0.00335737
  7710.51       0.0449982   0.244998       0.0449982   0.0449982  -0.00768828   0.0186731
  7710.82       0.0441486   0.244149       0.0441486   0.0441486  -0.000974573   0.0286788
  7711.11       0.0444193   0.244419       0.0444193   0.0444193   0.00934692   0.0135224
  7711.42       0.0496913   0.249691       0.0496913   0.0496913   0.00704419  -0.0219693
  7711.73       0.0487655   0.248766       0.0487655   0.0487655  -0.00420816  -0.0118659
  7712.03       0.0471117   0.247112       0.0471117   0.0471117  -0.00022961  -0.00407632
  7712.33       0.0486259   0.248626       0.0486259   0.0486259  -0.00668656   0.00903509
  7712.64       0.0429995   0.243       0.0429995   0.0429995   0.00532697   0.044312
  7712.95       0.0519286   0.251929       0.0519286   0.0519286   0.0207869   0.0314377
  7713.23       0.0552846   0.255285       0.0552846   0.0552846   0.0239066   0.0447258
  7713.54       0.065914   0.265914       0.065914   0.065914   0.0469515   0.0665428
  7713.85       0.0843006   0.284301       0.0843006   0.0843006   0.0650301   0.0425096
  7714.16       0.106428       0.306428       0.106428       0.106428       0.073435   0.00108854
  7714.47       0.12961       0.32961       0.12961       0.12961       0.0657017  -0.0407307
  7714.78       0.1469       0.3469       0.1469       0.1469       0.0483448  -0.0427053
  7715.08       0.158955       0.358955       0.158955       0.158955       0.0397796  -0.000128294
  7715.39       0.171126       0.371126       0.171126       0.171126       0.0482667   0.0085497
  7715.67       0.187577       0.387577       0.187577       0.187577       0.0448496  -0.0346297
  7715.97       0.197408       0.397408       0.197408       0.197408       0.0279737  -0.0508514
  7716.14       0.200641       0.400641       0.200641       0.200641       0.021102   0.00891306
  7716.26       0.20338       0.40338       0.20338       0.20338       0.0304961   0.136703
  7716.37       0.207655       0.407655       0.207655       0.207655       0.0525436   0.183184
  7716.5       0.2162       0.4162       0.2162       0.2162       0.0751931   0.0263122
  7716.62       0.226679       0.426679       0.226679       0.226679       0.0592006  -0.0872093
  7716.73       0.230053       0.430053       0.230053       0.230053       0.0547861  -0.0146453
  7716.87       0.240211       0.440211       0.240211       0.240211       0.0555832  -0.00201337
  7716.99       0.244227       0.444227       0.244227       0.244227       0.0542727  -0.0135848
  7717.1       0.252911       0.452911       0.252911       0.252911       0.0524043  -0.0939151
  7717.23       0.257066       0.457066       0.257066       0.257066       0.0312635   0.0692283
  7717.35       0.260696       0.460696       0.260696       0.260696       0.0696422   0.200793
  7717.46       0.273014       0.473014       0.273014       0.273014       0.0772452  -0.099608
  7717.59       0.279389       0.479389       0.279389       0.279389       0.045537   0.0464515
  7717.71       0.284307       0.484307       0.284307       0.284307       0.0887652   0.270944
  7717.84       0.30158       0.50158       0.30158       0.30158       0.113273      -0.0571672
  7717.96       0.312625       0.512625       0.312625       0.312625       0.0744734  -0.10532
  7718.07       0.318858       0.518858       0.318858       0.318858       0.0888388   0.175198
  7718.21       0.33448       0.53448       0.33448       0.33448       0.117572       0.0263323
  7718.33       0.348721       0.548721       0.348722       0.348722       0.0955272  -0.234895
  7718.44       0.356929       0.556929       0.356929       0.356929       0.0623719  -0.0744615
  7718.57       0.364003       0.564003       0.364003       0.364003       0.0772841   0.151815
  7718.69       0.376404       0.576404       0.376404       0.376404       0.100629       0.187986
  7718.81       0.387349       0.587349       0.387349       0.387349       0.120897       0.105533
  7718.94       0.405782       0.605782       0.405782       0.405782       0.126274       0.0869418
  7719.06       0.419043       0.619043       0.419043       0.419043       0.142719       0.0138575
  7719.17       0.438893       0.638893       0.438893       0.438893       0.129489      -0.123663
  7719.3       0.450509       0.650509       0.450509       0.450509       0.112669       0.226478
  7719.42       0.467286       0.667286       0.467286       0.467286       0.186561       0.20117
  7719.53       0.494537       0.694537       0.494537       0.494537       0.160145      -0.285572
  7719.67       0.506681       0.706681       0.506681       0.506681       0.11631       0.025932
  7719.79       0.523964       0.723964       0.523964       0.523964       0.166706       0.246278
  7719.9       0.545857       0.745857       0.545857       0.545857       0.174186       0.023224
  7720.03       0.566814       0.766814       0.566814       0.566814       0.172419       0.165618
  7720.15       0.589479       0.789479       0.589479       0.589479       0.216087       0.119003
  7720.27       0.617162       0.817162       0.617162       0.617162       0.200147      -0.240905
  7720.4       0.638115       0.838115       0.638115       0.638115       0.157547      -0.115249
  7720.52       0.656391       0.856391       0.656391       0.656391       0.17145       0.0750008
  7720.65       0.680806       0.880806       0.680806       0.680806       0.176222       0.186109
  7720.77       0.700447       0.900447       0.700447       0.700447       0.217977       0.258339
  7720.88       0.731595       0.931595       0.731595       0.731595       0.236415      -0.107593
  7721.01       0.758841       0.958841       0.758841       0.758841       0.191402      -0.194837
  7721.13       0.780211       0.980211       0.780211       0.780211       0.186927       0.041003
  7721.25       0.802395        1.0024       0.802395       0.802395       0.200955       0.135104
  7721.38       0.829646        1.02965       0.829646       0.829646       0.220162       0.218167
  7721.5       0.858316        1.05832       0.858254       0.858254       0.25637       0.121978
  7721.61       0.88938        2.2515       0.889492        2.05161       0.248583      -0.141211
  7721.74       0.918971        2.23423       0.919289        2.03455       0.221914      -0.0373215
  7721.86       0.944858        2.21893       0.945361        2.01943       0.239253      -0.101448
  7721.97       0.973999        2.20452       0.974676        2.0052       0.198581      -0.336674
  7722.1       0.992915        2.18794       0.993795        1.98882       0.157777       0.0110834
  7722.23        1.01376        2.17252        1.01483        1.97359       0.201374       0.228611
  7722.36        1.04406        2.15598        1.04534        1.95726       0.215845      -0.0968913
  7722.48        1.06837        2.14096        1.06983        1.94243       0.176861      -0.316295
  7722.59        1.08563        2.12693        1.08727        1.92857       0.141515      -0.313317
  7722.72        1.10304        2.11095        1.10489        1.9128       0.100098      -0.119316
  7722.85        1.11095        2.0962        1.11299        1.89824       0.111328       0.29015
  7722.96        1.12909        2.08278        1.1313        1.88499       0.167993       0.219704
  7723.05        1.14539        2.07172        1.14775        1.87408       0.156368      -0.214209
  7723.21        1.16896        2.05263        1.17157        1.85524       0.11337      -0.13395
  7723.41        1.18564        2.03018        1.18855        1.83309       0.108815       0.0271829
  7723.6        1.2114        2.0076        1.21462        1.81082       0.123971      -0.0353447
  7723.8        1.23448        1.98536        1.23801        1.78888       0.0948894  -0.168669
  7724        1.24907        1.96311        1.25291        1.76695       0.0570095  -0.190678
  7724.2        1.25717        1.94141        1.26132        1.74556       0.0189997  -0.135261
  7724.4        1.2566        1.92005        1.26105        1.72451       0.00344634  -0.0201203
  7724.59        1.25853        1.89922        1.26329        1.70399       0.0110722  -0.0143145
  7724.79        1.26095        1.87861        1.26602        1.68368      -0.00217926  -0.0970194
  7725.01        1.25762        1.85606        1.26303        1.66148      -0.0292878  -0.0399619
  7725.72        1.23359        1.78516        1.24012        1.59169      -0.0395037  -0.0105676
  7726.51        1.19841        1.71205        1.20616        1.5198      -0.0451287   0.00112282
  7727.3        1.16233        1.64272        1.17133        1.45172      -0.0377307   0.0059141
  7728.07        1.13958        1.58051        1.14977        1.3907      -0.0359086   0.00603401
  7728.83        1.10747        1.52249        1.11884        1.33387      -0.0285108   0.0176806
  7729.59        1.09605        1.46859        1.10862        1.28116      -0.00891038   0.0164954
  7730.35        1.0939        1.41877        1.10765        1.23253      -0.00338828   0.00389885
  7731.15        1.09078        1.37071        1.10578        1.1857      -0.00285156   0.00307085
  7731.91        1.08946        1.32822        1.10564        1.1444       0.00139303  -0.00300818
  7732.68        1.09292        1.28891        1.1103        1.1063      -0.00746009  -0.00632713
  7733.44        1.07803        1.25331        1.09661        1.07189      -0.0082938   0.00403166
  7734.21        1.08019        1.22046        1.09997        1.04024      -0.00127149  -0.00295985
  7734.98        1.07608        1.19115        1.09705        1.01213      -0.0128372  -0.00890818
  7735.77        1.06015        1.16355        1.08236       0.985772      -0.0151772   0.00851705
  7736.54        1.05236        1.14002        1.07577       0.963425       0.000474983   0.00647318
  7737.31        1.06088        1.11897        1.08549       0.943582      -0.00524732  -0.0141901
  7738.08        1.04429        1.10049        1.0701       0.926306      -0.0213636  -0.00776483
  7738.84        1.02808        1.08448        1.05509       0.911484      -0.0171663   0.00667684
  7739.62        1.01788        1.0706        1.0461       0.898812      -0.0110946   0.00104216
  7740.39        1.01095        1.05886        1.04037       0.888273      -0.0155572  -0.00655723
  7741.16       0.993847        1.04909        1.02447       0.879713      -0.0212255  -0.00546215
  7741.95       0.977755        1.04101        1.00961       0.872868      -0.0241001  -0.000128713
  7744.45       0.914534        1.02648       0.950294       0.862236      -0.0216491   0.0016429
  7746.97       0.869141        1.02492       0.90883       0.864608      -0.0158576   0.00180773
  7749.45       0.83523        1.03142       0.878795       0.874981      -0.0126087   0.00106022
  7751.94       0.806527        1.04109       0.853966       0.88853      -0.0105925   0.00106013
  7754.45       0.782246        1.0505       0.833618       0.901873      -0.00730593   0.00193615
  7756.95       0.769895        1.05892       0.825159       0.914182      -0.000884688   0.00251634
  7759.43       0.777845        1.06643       0.836982       0.925568       0.00521288   0.00175719
  7761.95       0.795949        1.07321       0.859014       0.936273       0.00789774   0.00117795
  7764.47       0.817634        1.07917       0.884633       0.946166       0.0111474   0.000467173
  7766.97       0.851886        1.08428       0.922783       0.955174       0.010242  -2.75944e-05
  7769.46       0.868782        1.08863       0.943576       0.963423       0.0110096   0.000173141
  7771.99       0.907176        1.09228       0.985911       0.971019       0.0111115  -0.00120598
  7774.49       0.924629        1.09519        1.00727       0.977831       0.00494832  -0.00182033
  7777       0.931967        1.09743        1.01852       0.98398       0.00199166  -0.00065216
  7780.56       0.936726        1.09947        1.02884       0.99159       0.000987099  -0.000834459
  7784.15       0.939027        1.10027        1.03674       0.997983      -0.00397639  -0.00057827
  7787.69       0.90837        1.09988        1.01162        1.00313      -0.00313654   0.000658535
  7791.28       0.916654        1.09839        1.0255        1.00724       0.000720941   0.000197728
  7794.86       0.913539        1.09587        1.02798        1.01031      -0.00171903  -0.000586711
  7798.44       0.904356        1.09241        1.02437        1.01243      -0.00347639  -0.000230069
  7802.02       0.888672        1.08808        1.01427        1.01368      -0.00336472   4.60447e-05
  7805.61       0.880204        1.08292        1.01142        1.01414      -0.00314588   0.00010834
  7809.2       0.866056        1.07706        1.00288        1.01388      -0.00258586   0.000434888
  7812.81       0.861599        1.07053        1.00405        1.01298      -1.68636e-05  -5.00429e-07
  7816.38       0.865935        1.0635        1.01396        1.01153      -0.00258945  -0.000496002
  7819.99       0.842994        1.05592       0.996656        1.00958      -0.00358064   9.17099e-06
  7823.6       0.840069        1.04793       0.999367        1.00723      -0.0025232  -0.000120427
  7827.22       0.824754        1.0396       0.989698        1.00455      -0.0044512   8.87403e-05
  7830.81       0.80798        1.03109       0.978529        1.00164      -0.00188347   0.000734612
  7834.44       0.811164        1.02235       0.98737       0.998552       0.000849024  -0.000146638
  7838.06       0.814132        1.01352       0.995991       0.99538      -0.00294601  -0.000344102
  7841.69       0.7898        1.00468       0.977324       0.9922      -0.0016464   0.000875525
  7845.32       0.802179       0.995912       0.995369       0.989101       0.0034103   0.00139303