File: Dynamic XAS/Dynamic XAS Energy analyzed data/ESweep_0_5 Hz/Same Eo/Normalized Spectra/Ir0_5Hz_ReaddMean_VPhsCorrect_44_-159_mV_.csv.nor
# XDI/1.0 Athena/0.9.26
# Element.edge:                  K
# Element.symbol:                Co
# Column.1:                      energy eV
# Column.2:                      norm
# Column.3:                      nbkg
# Column.4:                      flat
# Column.5:                      fbkg
# Column.6:                      nder
# Column.7:                      nsec
# Athena.e0:                     7721.54
# Athena.eshift:                 0
# Athena.rbkg:                   1.0
# Athena.importance:             1
# Athena.standard:               None
# Athena.bkg_kweight:            3
# Athena.edge_step:              1.19238
# Athena.fixed_step:             no
# Athena.pre_edge_range:         -82.964 -19.904
# Athena.pre_edge_line:          -0.046034 + 0.000220652 * E
# Athena.normalization_range:    45 125.256
# Athena.post_edge_polynomial:   15.577 - 0.00164823 * E + 0 * E^2 + 0 * E^3
# Athena.spline_range_energy:    0.000 125.180
# Athena.clamps:                 0 24
# Athena.spline_range_k:         0.000 5.732
# Athena.kweight:                2
# Athena.window:                 hanning
# Athena.phase_correction:       no
# Athena.k_range:                .4 5.35
# Athena.dk:                     .5
# Athena.r_range:                .4 5.1
# Athena.dr:                     .5
# Athena.window:                 hanning
# Athena.plot_multiplier:        1
# Athena.y_offset:               0.2
# ///
#------------------------
#   e         norm        nbkg        flat        fbkg        nder        nsec
  7600.07      -0.213661      -0.0136607  -0.213661      -0.213661       0.0123761  -0.000522571
  7610.64      -0.0827958   0.117204      -0.0827958  -0.0827958   0.00685044  -0.000390177
  7624.56      -0.0459003   0.1541      -0.0459003  -0.0459003   0.00282106  -0.000213038
  7637.2      -0.00787135   0.192129      -0.00787136  -0.00787136   0.00119235  -0.000125399
  7649.7      -0.015921   0.184079      -0.015921  -0.015921  -0.000331853   0.000106287
  7662.2      -0.0161673   0.183833      -0.0161673  -0.0161673   0.00384943   2.05571e-05
  7674.73       0.0804455   0.280446       0.0804456   0.0804456   0.000182773  -0.000293949
  7687.33      -0.0115739   0.188426      -0.0115739  -0.0115739  -0.00353809   8.43209e-06
  7700.01      -0.00898677   0.191013      -0.00898677  -0.00898677   0.000395911   0.000987141
  7700.39      -0.00640447   0.193596      -0.00640447  -0.00640447   0.00935101   0.0078875
  7700.72      -0.0023569   0.197643      -0.0023569  -0.0023569   0.00598815  -0.0220544
  7701.07      -0.00231457   0.197685      -0.00231457  -0.00231457  -0.00571216  -0.00855515
  7701.43      -0.0064411   0.193559      -0.0064411  -0.0064411  -0.00012878   0.0149188
  7701.8      -0.00240819   0.197592      -0.00240819  -0.00240819   0.00513378  -0.00393511
  7702.15      -0.00273964   0.19726      -0.00273964  -0.00273964  -0.00296599  -0.0140367
  7702.52      -0.00453481   0.195465      -0.00453481  -0.00453481  -0.00493052   0.000747205
  7702.88      -0.00630934   0.193691      -0.00630934  -0.00630934  -0.00242502   0.00818005
  7703.24      -0.0062978   0.193702      -0.0062978  -0.0062978   0.00101637   0.00665573
  7703.6      -0.00557653   0.194423      -0.00557653  -0.00557653   0.00237376   0.00916306
  7703.96      -0.00459106   0.195409      -0.00459106  -0.00459106   0.00760461   0.00266124
  7704.32      -6.31901e-05   0.199937      -6.31901e-05  -6.31901e-05   0.00430316  -0.016846
  7704.69      -0.00146696   0.198533      -0.00146696  -0.00146696  -0.00462555  -0.0115891
  7705.02      -0.00327795   0.196722      -0.00327795  -0.00327795  -0.00375127   0.0099844
  7705.38      -0.00407035   0.19593      -0.00407035  -0.00407035   0.00230362   0.0291735
  7705.75      -0.00159861   0.198401      -0.00159861  -0.00159861   0.0175162   0.0309892
  7706.11       0.00873399   0.208734       0.00873399   0.00873399   0.0249567   0.0174617
  7706.47       0.0164201   0.21642       0.0164201   0.0164201   0.0301236   0.0095758
  7706.83       0.0303928   0.230393       0.0303928   0.0303928   0.0318417  -0.0066366
  7707.2       0.0395053   0.239505       0.0395053   0.0395053   0.025312  -0.0207605
  7707.56       0.0487694   0.248769       0.0487694   0.0487694   0.0167695  -0.029347
  7707.91       0.0515626   0.251563       0.0515626   0.0515626   0.00421152  -0.0190614
  7708.28       0.0518143   0.251814       0.0518143   0.0518143   0.00298818  -0.00825831
  7708.65       0.053747   0.253747       0.053747   0.053747  -0.0018253  -0.0188063
  7708.98       0.0505329   0.250533       0.0505329   0.0505329  -0.0102139   0.00606183
  7709.29       0.0471693   0.247169       0.0471693   0.0471693   0.00207852   0.0288777
  7709.6       0.0518091   0.251809       0.0518091   0.0518091   0.00751706  -0.00983707
  7709.9       0.0517772   0.251777       0.0517772   0.0517772  -0.00395161  -0.033172
  7710.21       0.0493789   0.249379       0.0493789   0.0493789  -0.0128837  -0.00617498
  7710.51       0.0439053   0.243905       0.0439053   0.0439053  -0.00772453   0.0249015
  7710.82       0.0446515   0.244651       0.0446515   0.0446515   0.00235602   0.0346187
  7711.11       0.0453048   0.245305       0.0453048   0.0453048   0.012839   0.006224
  7711.42       0.052265   0.252265       0.052265   0.052265   0.00604686  -0.0285376
  7711.73       0.0490357   0.249036       0.0490357   0.0490357  -0.0047687  -0.00888394
  7712.03       0.0493418   0.249342       0.0493418   0.0493418   0.000601   0.00278897
  7712.33       0.0494011   0.249401       0.0494011   0.0494011  -0.00307301   0.0117032
  7712.64       0.0474519   0.247452       0.0474519   0.0474519   0.00779845   0.0305831
  7712.95       0.0542361   0.254236       0.0542361   0.0542361   0.0158885   0.0308601
  7713.23       0.056842   0.256842       0.056842   0.056842   0.0260368   0.0538324
  7713.54       0.0694677   0.269468       0.0694677   0.0694677   0.0473804   0.0609563
  7713.85       0.0861231   0.286123       0.0861231   0.0861231   0.0637078   0.0523658
  7714.16       0.109158       0.309158       0.109158       0.109158       0.0800043   0.0183596
  7714.47       0.135486       0.335486       0.135486       0.135486       0.0750357  -0.0445378
  7714.78       0.15538       0.35538       0.15538       0.15538       0.0525691  -0.0629192
  7715.08       0.167395       0.367395       0.167395       0.167395       0.0368437  -0.00937283
  7715.39       0.177817       0.377817       0.177817       0.177817       0.046861   0.0218813
  7715.67       0.195184       0.395184       0.195184       0.195184       0.0498193  -0.0361596
  7715.97       0.207012       0.407012       0.207012       0.207012       0.0256715  -0.0643134
  7716.14       0.207172       0.407172       0.207172       0.207172       0.019785   0.0709084
  7716.26       0.212611       0.412611       0.212611       0.212611       0.0457386   0.148625
  7716.37       0.217692       0.417692       0.217692       0.217692       0.0539686   0.10213
  7716.5       0.225779       0.425779       0.225779       0.225779       0.0706583   0.0424189
  7716.62       0.235569       0.435569       0.235569       0.235569       0.0647006  -0.11905
  7716.73       0.240919       0.440919       0.240919       0.240919       0.0428006  -0.101903
  7716.87       0.246141       0.446141       0.246141       0.246141       0.0395306  -0.0205378
  7716.99       0.250999       0.450999       0.250999       0.250999       0.0375634   0.00555378
  7717.1       0.25493       0.45493       0.25493       0.25493       0.0408302   0.122739
  7717.23       0.261003       0.461003       0.261003       0.261003       0.0676344   0.256495
  7717.35       0.271771       0.471771       0.271771       0.271771       0.104697      -0.0836231
  7717.46       0.284978       0.484978       0.284978       0.284978       0.0484847  -0.226792
  7717.59       0.283505       0.483505       0.283505       0.283505       0.0498137   0.189453
  7717.71       0.297332       0.497332       0.297332       0.297332       0.095469   0.129332
  7717.84       0.307372       0.507372       0.307372       0.307372       0.0821466   0.0249175
  7717.96       0.317869       0.517869       0.317869       0.317869       0.101698       0.196141
  7718.07       0.330966       0.530966       0.330966       0.330966       0.127651      -0.0400697
  7718.21       0.349271       0.549271       0.349271       0.349271       0.0918412  -0.281681
  7718.33       0.354294       0.554294       0.354294       0.354294       0.0561045   0.0454029
  7718.44       0.362456       0.562456       0.362456       0.362456       0.102511       0.261665
  7718.57       0.379409       0.579409       0.379409       0.379409       0.120212      -0.0136604
  7718.69       0.392749       0.592749       0.392749       0.392749       0.0990685  -0.135146
  7718.81       0.402393       0.602393       0.402393       0.402393       0.0888585   0.15242
  7718.94       0.414342       0.614342       0.414342       0.414342       0.136106       0.353794
  7719.06       0.436555       0.636555       0.436555       0.436555       0.177661      -0.0400251
  7719.17       0.455559       0.655559       0.455559       0.455559       0.126821      -0.272014
  7719.3       0.467373       0.667373       0.467373       0.467373       0.111561       0.0764626
  7719.42       0.483673       0.683673       0.483673       0.483673       0.146089       0.139706
  7719.53       0.50185       0.70185       0.50185       0.50185       0.144532       0.00585644
  7719.67       0.519227       0.719227       0.519227       0.519227       0.14753       0.0214243
  7719.79       0.539175       0.739175       0.539175       0.539175       0.149952       0.167737
  7719.9       0.554466       0.754466       0.554466       0.554466       0.186948       0.215521
  7720.03       0.585164       0.785164       0.585164       0.585164       0.202971       0.128683
  7720.15       0.605818       0.805818       0.605818       0.605818       0.219505      -0.0753024
  7720.27       0.636309       0.836309       0.636309       0.636309       0.185425      -0.274007
  7720.4       0.650876       0.850876       0.650876       0.650876       0.152921      -0.0976222
  7720.52       0.674386       0.874386       0.674386       0.674386       0.161117       0.100745
  7720.65       0.690994       0.890994       0.690994       0.690994       0.178007       0.235857
  7720.77       0.718888       0.918888       0.718888       0.718888       0.220082       0.132816
  7720.88       0.742273       0.942273       0.742273       0.742273       0.208953      -0.014276
  7721.01       0.770499       0.970499       0.770499       0.770499       0.216555      -0.0940116
  7721.13       0.797278       0.997278       0.797278       0.797278       0.185074      -0.0841482
  7721.25       0.813621        1.01362       0.813621       0.813621       0.196949       0.202718
  7721.38       0.845728        1.04573       0.845728       0.845728       0.234942       0.188998
  7721.5       0.873297        1.0733       0.873234       0.873234       0.244954      -0.0969256
  7721.61       0.902802        2.23449       0.902915        2.0346       0.212359      -0.114888
  7721.74       0.925112        2.21747       0.925432        2.01779       0.216922       0.223749
  7721.86       0.957033        2.20239       0.957537        2.00289       0.268296      -0.113321
  7721.97       0.98682        2.18819       0.987501        1.98887       0.190858      -0.580511
  7722.1        1.00322        2.17185        1.0041        1.97274       0.127812       0.0318371
  7722.23        1.01903        2.15666        1.0201        1.95773       0.198881       0.303046
  7722.36        1.05374        2.14036        1.05502        1.94164       0.204786      -0.193225
  7722.48        1.07084        2.12556        1.07231        1.92703       0.149995      -0.22552
  7722.59        1.08898        2.11173        1.09064        1.91338       0.151789      -0.192042
  7722.72        1.10803        2.09599        1.10988        1.89784       0.102945      -0.188089
  7722.85        1.11503        2.08145        1.11708        1.8835       0.104202       0.171645
  7722.96        1.13241        2.06823        1.13463        1.87045       0.14311       0.165522
  7723.05        1.14437        2.05733        1.14674        1.85969       0.138134      -0.119529
  7723.21        1.16764        2.03851        1.17026        1.84114       0.11263      -0.0919954
  7723.41        1.18435        2.0164        1.18728        1.81932       0.105476       0.00071068
  7723.6        1.20877        1.99415        1.21201        1.79738       0.112907      -0.0448193
  7723.8        1.22884        1.97223        1.23238        1.77577       0.0878172  -0.121948
  7724        1.24364        1.9503        1.24749        1.75416       0.0644932  -0.173671
  7724.2        1.2545        1.92893        1.25867        1.73309       0.0186963  -0.167558
  7724.4        1.25104        1.90787        1.25552        1.71235      -0.00185991  -0.0196941
  7724.59        1.25377        1.88735        1.25855        1.69214       0.0109368  -0.0357741
  7724.79        1.25534        1.86704        1.26043        1.67213      -0.0159191  -0.101135
  7725.01        1.24715        1.84482        1.25258        1.65026      -0.0311352  -0.0211471
  7725.72        1.22626        1.77496        1.23281        1.58151      -0.0356705  -0.00656385
  7726.51        1.19368        1.70292        1.20146        1.51071      -0.0409744   8.02637e-05
  7727.3        1.16156        1.63461        1.17059        1.44364      -0.0355438   0.00361044
  7728.07        1.13827        1.57332        1.14849        1.38354      -0.0353458   0.0049034
  7728.83        1.10755        1.51615        1.11898        1.32757      -0.0280514   0.016568
  7729.59        1.09543        1.46304        1.10805        1.27566      -0.0100464   0.0156706
  7730.35        1.09225        1.41396        1.10606        1.22777      -0.00418514   0.00382225
  7731.15        1.08893        1.3666        1.10399        1.18166      -0.00410658   0.00277329
  7731.91        1.08586        1.32474        1.10211        1.141       0.000132873  -0.00244575
  7732.68        1.08913        1.28602        1.10659        1.10348      -0.00785347  -0.0059579
  7733.44        1.07383        1.25095        1.09248        1.0696      -0.00898868   0.00556396
  7734.21        1.07533        1.21859        1.0952        1.03845       0.000687205  -0.000496978
  7734.98        1.07489        1.18972        1.09595        1.01078      -0.00975154  -0.0103319
  7735.77        1.06011        1.16253        1.08242       0.984845      -0.0154409   0.00567241
  7736.54        1.05075        1.13935        1.07426       0.962858      -0.000885559   0.00727384
  7737.31        1.05875        1.11862        1.08347       0.943338      -0.00428285  -0.0129741
  7738.08        1.04416        1.10043        1.07008       0.926349      -0.0208526  -0.00978872
  7738.84        1.02674        1.08465        1.05387       0.911776      -0.0193085   0.00580796
  7739.62        1.01446        1.07099        1.0428       0.899323      -0.01192   0.00370791
  7740.39        1.00834        1.05943        1.03788       0.888971      -0.0135835  -0.00520526
  7741.16       0.993478        1.04982        1.02423       0.88057      -0.0199621  -0.0070776
  7741.95       0.977119        1.04187        1.00911       0.87386      -0.0246529  -0.000457848
  7744.45       0.912345        1.02758       0.948256       0.863488      -0.0214689   0.00175337
  7746.97       0.86941        1.02607       0.909266       0.865927      -0.0158562   0.00187429
  7749.45       0.833048        1.03249       0.876798       0.87624      -0.0120956   0.0011769
  7751.94       0.809343        1.04204       0.856983       0.889676      -0.0100117   0.0009173
  7754.45       0.782969        1.05131       0.834559       0.902898      -0.00750724   0.00196609
  7756.95       0.771702        1.05959       0.8272       0.91509      -0.000153788   0.00256773
  7759.43       0.782204        1.06698       0.841591       0.926364       0.00526724   0.00144726
  7761.95       0.798028        1.07363       0.86136       0.936957       0.00707962   0.00114508
  7764.47       0.817871        1.07946       0.885155       0.946743       0.0110362   0.00073507
  7766.97       0.853407        1.08445       0.924604       0.955649       0.0107682  -7.22995e-05
  7769.46       0.871648        1.08869       0.946759       0.963799       0.0106751  -2.5908e-05
  7771.99       0.907017        1.09223       0.986086       0.971299       0.0106381  -0.0011935
  7774.49       0.925115        1.09503        1.0081       0.978022       0.00467655  -0.00181336
  7777       0.930447        1.09716        1.01737       0.984085       0.00155316  -0.000610636
  7780.56       0.934549        1.09907        1.02706       0.991583       0.000967545  -0.000769391
  7784.15       0.937367        1.09974        1.0355       0.997874      -0.00394952  -0.000549666
  7787.69       0.906385        1.09925        1.01007        1.00293      -0.00295212   0.000680874
  7791.28       0.916309        1.09765        1.02562        1.00696       0.000907156   0.000164958
  7794.86       0.912888        1.09505        1.02781        1.00997      -0.00176954  -0.000636131
  7798.44       0.90365        1.09151        1.02417        1.01204      -0.00364372  -0.000199578
  7802.02       0.886824        1.08712        1.01296        1.01325      -0.00319712   6.37002e-05
  7805.61       0.880701        1.08191        1.01247        1.01369      -0.00318648   5.21941e-05
  7809.2       0.863917        1.07602        1.00132        1.01342      -0.0028219   0.000463285
  7812.81       0.860397        1.06948        1.00345        1.01253       0.000146854   4.62591e-05
  7816.38       0.864971        1.06246        1.01362        1.01111      -0.0024899  -0.000508001
  7819.99       0.842507        1.0549       0.99682        1.00921      -0.00350313  -1.32864e-05
  7823.6       0.839664        1.04695       0.999636        1.00693      -0.00258588  -0.000120638
  7827.22       0.823814        1.03869       0.989457        1.00433      -0.00437522   7.95749e-05
  7830.81       0.808123        1.03026       0.979395        1.00153      -0.00201222   0.000721086
  7834.44       0.809296        1.02162       0.986247       0.99857       0.000827415  -8.37219e-05
  7838.06       0.814119        1.01292       0.996747       0.995548      -0.00261887  -0.000342335
  7841.69       0.790304        1.00422       0.978622       0.992542      -0.0016552   0.000808406
  7845.32       0.802102       0.995632       0.996109       0.98964       0.00325015   0.00135134