File: Dynamic XAS/Dynamic XAS Energy analyzed data/ESweep_0_5 Hz/Same Eo/Normalized Spectra/Ir0_5Hz_ReaddMean_VPhsCorrect_36_-248_mV_.csv.nor
# XDI/1.0 Athena/0.9.26
# Element.edge:                  K
# Element.symbol:                Co
# Column.1:                      energy eV
# Column.2:                      norm
# Column.3:                      nbkg
# Column.4:                      flat
# Column.5:                      fbkg
# Column.6:                      nder
# Column.7:                      nsec
# Athena.e0:                     7721.54
# Athena.eshift:                 0
# Athena.rbkg:                   1.0
# Athena.importance:             1
# Athena.standard:               None
# Athena.bkg_kweight:            3
# Athena.edge_step:              1.19326
# Athena.fixed_step:             no
# Athena.pre_edge_range:         -82.964 -19.904
# Athena.pre_edge_line:          -0.003407 + 0.00021509 * E
# Athena.normalization_range:    45 125.256
# Athena.post_edge_polynomial:   15.6175 - 0.00165341 * E + 0 * E^2 + 0 * E^3
# Athena.spline_range_energy:    0.000 125.180
# Athena.clamps:                 0 24
# Athena.spline_range_k:         0.000 5.732
# Athena.kweight:                2
# Athena.window:                 hanning
# Athena.phase_correction:       no
# Athena.k_range:                .4 5.35
# Athena.dk:                     .5
# Athena.r_range:                .4 5.1
# Athena.dr:                     .5
# Athena.window:                 hanning
# Athena.plot_multiplier:        1
# Athena.y_offset:               0.2
# ///
#------------------------
#   e         norm        nbkg        flat        fbkg        nder        nsec
  7600.07      -0.211974      -0.0119744  -0.211974      -0.211974       0.0121798  -0.000510462
  7610.64      -0.0831851   0.116815      -0.0831851  -0.0831851   0.00678218  -0.00038143
  7624.56      -0.0458857   0.154114      -0.0458857  -0.0458857   0.00283896  -0.000211056
  7637.2      -0.00778522   0.192215      -0.00778522  -0.00778522   0.00117675  -0.00012489
  7649.7      -0.0162987   0.183701      -0.0162987  -0.0162987  -0.000301152   0.000105691
  7662.2      -0.0153137   0.184686      -0.0153137  -0.0153137   0.00381891   1.9138e-05
  7674.73       0.079304   0.279304       0.079304   0.079304   0.000177949  -0.000289918
  7687.33      -0.0108415   0.189159      -0.0108415  -0.0108415  -0.0034673   7.61348e-06
  7700.01      -0.00833893   0.191661      -0.00833893  -0.00833893   0.000370395   0.000892715
  7700.39      -0.00600526   0.193995      -0.00600526  -0.00600526   0.00818887   0.00504984
  7700.72      -0.00253302   0.197467      -0.00253302  -0.00253302   0.00395073  -0.0211057
  7701.07      -0.00330691   0.196693      -0.00330691  -0.00330691  -0.00622631  -0.00281108
  7701.43      -0.00698483   0.193015      -0.00698483  -0.00698483   0.00194081   0.0180905
  7701.8      -0.00189594   0.198104      -0.00189594  -0.00189594   0.00692547  -0.00817511
  7702.15      -0.00199157   0.198008      -0.00199157  -0.00199157  -0.00395344  -0.0176368
  7702.52      -0.00473056   0.195269      -0.00473056  -0.00473056  -0.00572014   0.00155464
  7702.88      -0.00613295   0.193867      -0.00613295  -0.00613295  -0.00282789   0.00563803
  7703.24      -0.00678643   0.193214      -0.00678643  -0.00678643  -0.00162129   0.00778458
  7703.6      -0.0073019   0.192698      -0.0073019  -0.0073019   0.0027848   0.0144542
  7703.96      -0.00478416   0.195216      -0.00478416  -0.00478416   0.00877124   0.00483879
  7704.32      -0.00094275   0.199057      -0.00094275  -0.00094275   0.00629292  -0.0142673
  7704.69      -0.000215496   0.199785      -0.000215496  -0.000215496  -0.00158681  -0.0171592
  7705.02      -0.00204558   0.197954      -0.00204558  -0.00204558  -0.00563275   0.00106941
  7705.38      -0.00412462   0.195875      -0.00412462  -0.00412462  -0.000844636   0.030957
  7705.75      -0.00266132   0.197339      -0.00266132  -0.00266132   0.0169349   0.036307
  7706.11       0.0082548   0.208255       0.0082548   0.0082548   0.0256958   0.0175647
  7706.47       0.015891   0.215891       0.015891   0.015891   0.0296166   0.0112303
  7706.83       0.0295492   0.229549       0.0295492   0.0295492   0.0337704  -0.00369398
  7707.2       0.0403745   0.240375       0.0403745   0.0403745   0.0269385  -0.0233468
  7707.56       0.0491065   0.249107       0.0491065   0.0491065   0.0168206  -0.0312803
  7707.91       0.0524685   0.252469       0.0524685   0.0524685   0.00444797  -0.0211284
  7708.28       0.0523224   0.252322       0.0523224   0.0523224   0.0015447  -0.0103996
  7708.65       0.0535977   0.253598       0.0535977   0.0535977  -0.00315411  -0.0132131
  7708.98       0.0501082   0.250108       0.0501082   0.0501082  -0.00773091   0.0104661
  7709.29       0.048619   0.248619       0.048619   0.048619   0.00358607   0.0228532
  7709.6       0.0523101   0.25231       0.0523101   0.0523101   0.00630096  -0.0133502
  7709.9       0.0524815   0.252481       0.0524815   0.0524815  -0.00459761  -0.0315153
  7710.21       0.0494825   0.249483       0.0494825   0.0494825  -0.0130809  -0.00625229
  7710.51       0.044489   0.244489       0.044489   0.044489  -0.00841776   0.0195014
  7710.82       0.0443309   0.244331       0.0443309   0.0443309  -0.00114607   0.033949
  7711.11       0.0438083   0.243808       0.0438083   0.0438083   0.0117479   0.017713
  7711.42       0.0512974   0.251297       0.0512974   0.0512974   0.00935775  -0.0226751
  7711.73       0.049582   0.249582       0.049582   0.049582  -0.00224262  -0.0162177
  7712.03       0.0499227   0.249923       0.0499227   0.0499227  -0.000583724  -0.00910773
  7712.33       0.0492271   0.249227       0.0492271   0.0492271  -0.00778012   0.0111867
  7712.64       0.0451379   0.245138       0.0451379   0.0451379   0.00629608   0.0453275
  7712.95       0.0531307   0.253131       0.0531307   0.0531307   0.0203229   0.0330469
  7713.23       0.0571487   0.257149       0.0571487   0.0571487   0.0258268   0.0452233
  7713.54       0.0682393   0.268239       0.0682393   0.0682393   0.0467785   0.0659618
  7713.85       0.0860579   0.286058       0.0860579   0.0860579   0.0665912   0.0454201
  7714.16       0.109726       0.309726       0.109726       0.109726       0.0750752   0.00037425
  7714.47       0.132379       0.332379       0.132379       0.132379       0.0668221  -0.0412028
  7714.78       0.150888       0.350888       0.150888       0.150888       0.0496943  -0.0472217
  7715.08       0.162544       0.362544       0.162544       0.162544       0.0381585  -0.00462173
  7715.39       0.174127       0.374127       0.174127       0.174127       0.0468797   0.0137417
  7715.67       0.190343       0.390343       0.190343       0.190343       0.0463074  -0.0267523
  7715.97       0.201263       0.401263       0.201263       0.201263       0.0312029  -0.0593139
  7716.14       0.204915       0.404915       0.204915       0.204915       0.0186078  -0.00572825
  7716.26       0.206529       0.406529       0.206529       0.206529       0.0295818   0.160059
  7716.37       0.211719       0.411719       0.211719       0.211719       0.0554214   0.158593
  7716.5       0.220052       0.420052       0.220052       0.220052       0.0682785   0.0368947
  7716.62       0.228993       0.428993       0.228993       0.228993       0.0647558  -0.0542706
  7716.73       0.235204       0.435204       0.235204       0.235204       0.0555792  -0.0398257
  7716.87       0.242721       0.442721       0.242721       0.242721       0.0549188  -0.0422515
  7716.99       0.249209       0.449209       0.249209       0.249209       0.0448051  -0.0643017
  7717.1       0.253206       0.453206       0.253206       0.253206       0.0398722   0.0350315
  7717.23       0.258977       0.458977       0.258977       0.258977       0.0533878   0.200495
  7717.35       0.266499       0.466499       0.266499       0.266499       0.0897954   0.07684
  7717.46       0.279541       0.479541       0.279541       0.279541       0.0709841  -0.20611
  7717.59       0.283678       0.483678       0.283678       0.283678       0.0399167   0.0914284
  7717.71       0.28944       0.48944       0.28944       0.28944       0.0936584   0.254259
  7717.84       0.307092       0.507092       0.307092       0.307092       0.103481      -0.100433
  7717.96       0.31531       0.51531       0.31531       0.31531       0.0685502   0.0294747
  7718.07       0.322996       0.522996       0.322996       0.322996       0.11032       0.227853
  7718.21       0.342449       0.542449       0.342449       0.342449       0.124602      -0.1359
  7718.33       0.354645       0.554645       0.354645       0.354645       0.0758009  -0.228588
  7718.44       0.360262       0.560262       0.360262       0.360262       0.0708838   0.0775421
  7718.57       0.372011       0.572011       0.372011       0.372011       0.0947987   0.0861282
  7718.69       0.384151       0.584151       0.384151       0.384151       0.0925881   0.0509538
  7718.81       0.393492       0.593492       0.393492       0.393492       0.10662       0.159521
  7718.94       0.41006       0.61006       0.41006       0.41006       0.131352       0.217045
  7719.06       0.426461       0.626461       0.426461       0.426461       0.161098      -0.00508298
  7719.17       0.447435       0.647435       0.447435       0.447435       0.130172      -0.233108
  7719.3       0.458093       0.658093       0.458093       0.458093       0.104453       0.15619
  7719.42       0.473757       0.673757       0.473757       0.473757       0.169532       0.218176
  7719.53       0.498103       0.698103       0.498103       0.498103       0.155942      -0.184524
  7719.67       0.512119       0.712119       0.512119       0.512119       0.12414       0.0723007
  7719.79       0.52951       0.72951       0.52951       0.52951       0.174234       0.251196
  7719.9       0.553064       0.753064       0.553064       0.553064       0.183171      -0.0200602
  7720.03       0.57457       0.77457       0.57457       0.57457       0.1693       0.141644
  7720.15       0.595897       0.795897       0.595897       0.595897       0.219007       0.117163
  7720.27       0.625598       0.825598       0.625598       0.625598       0.196599      -0.280895
  7720.4       0.64367       0.84367       0.64367       0.64367       0.150749      -0.127997
  7720.52       0.663135       0.863135       0.663135       0.663135       0.164727       0.122912
  7720.65       0.684687       0.884687       0.684687       0.684687       0.181354       0.294988
  7720.77       0.708474       0.908474       0.708474       0.708474       0.238474       0.164428
  7720.88       0.740252       0.940252       0.740252       0.740252       0.219666      -0.219542
  7721.01       0.762731       0.962731       0.762731       0.762731       0.184247      -0.0758501
  7721.13       0.78705       0.98705       0.78705       0.78705       0.2004       0.0479085
  7721.25       0.809424        1.00942       0.809424       0.809424       0.19541       0.0692384
  7721.38       0.835121        1.03512       0.835121       0.835121       0.217433       0.264869
  7721.5       0.864652        1.06465       0.86459       0.86459       0.262687       0.0866613
  7721.61       0.896327        2.24003       0.89644        2.04014       0.237625      -0.196279
  7721.74       0.922633        2.22292       0.922952        2.02324       0.214795       0.0364173
  7721.86       0.950026        2.20777       0.95053        2.00827       0.246729      -0.0748425
  7721.97       0.979381        2.1935       0.98006        1.99417       0.197581      -0.412621
  7722.1       0.997841        2.17707       0.998724        1.97795       0.146875      -0.0173362
  7722.23        1.01639        2.1618        1.01747        1.96287       0.193212       0.232397
  7722.36        1.04692        2.14542        1.0482        1.9467       0.205904      -0.0497788
  7722.48        1.06849        2.13054        1.06996        1.93201       0.180618      -0.277413
  7722.59        1.08936        2.11664        1.09101        1.91829       0.140712      -0.363488
  7722.72        1.10296        2.10081        1.10482        1.90266       0.0915635  -0.122301
  7722.85        1.11253        2.0862        1.11457        1.88825       0.10977       0.292694
  7722.96        1.12865        2.07291        1.13087        1.87513       0.160054       0.209736
  7723.05        1.14534        2.06195        1.1477        1.86431       0.152765      -0.185306
  7723.21        1.1676        2.04304        1.17022        1.84566       0.112801      -0.14043
  7723.41        1.18538        2.02081        1.1883        1.82373       0.102913       0.00509151
  7723.6        1.20774        1.99844        1.21097        1.80167       0.114786      -0.0183709
  7723.8        1.23061        1.9764        1.23415        1.77994       0.0956747  -0.146517
  7724        1.24572        1.95437        1.24957        1.75822       0.0566191  -0.178686
  7724.2        1.25314        1.93288        1.2573        1.73704       0.0245577  -0.120534
  7724.4        1.25545        1.91171        1.25992        1.71619       0.00888756  -0.0451433
  7724.59        1.25664        1.89108        1.26142        1.69586       0.00677123  -0.0401109
  7724.79        1.25811        1.87066        1.26319        1.67575      -0.00687601  -0.0915788
  7725.01        1.25378        1.84833        1.25921        1.65376      -0.0313255  -0.0340918
  7725.72        1.22885        1.7781        1.2354        1.58465      -0.0387178  -0.00696631
  7726.51        1.19575        1.70568        1.20352        1.51345      -0.0417681   0.00137094
  7727.3        1.1629        1.637        1.17192        1.44602      -0.0365531   0.00375915
  7728.07        1.13876        1.57538        1.14898        1.3856      -0.0359075   0.0051834
  7728.83        1.10803        1.5179        1.11945        1.32932      -0.0286328   0.0170119
  7729.59        1.09504        1.4645        1.10765        1.27711      -0.0099303   0.015707
  7730.35        1.09291        1.41516        1.10671        1.22896      -0.00471115   0.00428207
  7731.15        1.08772        1.36755        1.10276        1.18259      -0.00327596   0.00416638
  7731.91        1.08781        1.32545        1.10404        1.14169       0.00177591  -0.00351936
  7732.68        1.09044        1.28652        1.10788        1.10396      -0.00866762  -0.00691434
  7733.44        1.07454        1.25125        1.09317        1.06988      -0.00880995   0.00569355
  7734.21        1.07691        1.2187        1.09676        1.03855       7.19819e-05  -0.00200811
  7734.98        1.07465        1.18967        1.09569        1.01071      -0.0118924  -0.00983858
  7735.77        1.05835        1.16233        1.08064       0.984616      -0.015286   0.0076923
  7736.54        1.05075        1.13901        1.07424       0.962492       0.000130672   0.0068482
  7737.31        1.05855        1.11816        1.08324       0.942848      -0.00478091  -0.013537
  7738.08        1.0434        1.09985        1.06929       0.925748      -0.0207028  -0.00813056
  7738.84        1.02677        1.08398        1.05387       0.911077      -0.0172613   0.00602796
  7739.62        1.01685        1.07023        1.04515       0.898537      -0.0114318   0.00125605
  7740.39        1.00912        1.0586        1.03863       0.888109      -0.015322  -0.00603368
  7741.16       0.993176        1.04892        1.0239       0.879642      -0.0207539  -0.00569107
  7741.95       0.976661        1.04091        1.00862       0.872875      -0.0242228  -0.000321118
  7744.45       0.913459        1.02651       0.949336       0.862384      -0.0218107   0.00161164
  7746.97       0.867237        1.02496       0.907056       0.86478      -0.0161372   0.00190868
  7749.45       0.832757        1.03139       0.876465       0.875102      -0.0122654   0.00123981
  7751.94       0.806327        1.04098       0.853922       0.888577      -0.0099803   0.00102622
  7754.45       0.782835        1.05031       0.834376       0.901853      -0.00713224   0.00183662
  7756.95       0.770566        1.05866       0.826012       0.914108      -0.000771466   0.002493
  7759.43       0.778997        1.06612       0.838328       0.925454       0.00527046   0.00168891
  7761.95       0.796908        1.07286       0.86018       0.936129       0.0076697   0.00113174
  7764.47       0.817637        1.07878       0.884857       0.946002       0.0109722   0.000594493
  7766.97       0.851967        1.08387       0.923096       0.955001       0.0106529  -3.97713e-05
  7769.46       0.870838        1.08821       0.945877       0.963247       0.0107736   4.54466e-05
  7771.99       0.906071        1.09186       0.985065       0.970849       0.0108811  -0.00119424
  7774.49       0.925526        1.09476        1.00844       0.977673       0.00477134  -0.00182423
  7777       0.929976        1.097        1.01681       0.983839       0.00174173  -0.000594228
  7780.56       0.936105        1.09906        1.02853       0.99148       0.001162  -0.000798956
  7784.15       0.938286        1.09987        1.03632       0.997911      -0.00397241  -0.000611326
  7787.69       0.907778        1.09951        1.01137        1.0031      -0.00319737   0.000676361
  7791.28       0.91548        1.09804        1.02469        1.00725       0.000852081   0.000225801
  7794.86       0.913887        1.09555        1.0287        1.01036      -0.0015786  -0.00061891
  7798.44       0.904186        1.0921        1.0246        1.01251      -0.0035756  -0.000259919
  7802.02       0.88831        1.08777        1.01432        1.01378      -0.0034378   4.42537e-05
  7805.61       0.87951        1.08261        1.01116        1.01426      -0.00325795   0.000135152
  7809.2       0.864889        1.07673        1.00216        1.014      -0.00246619   0.000450393
  7812.81       0.861766        1.07016        1.00468        1.01308      -1.73741e-05  -3.63255e-05
  7816.38       0.864764        1.06308        1.01327        1.01159      -0.00272689  -0.00049707
  7819.99       0.842173        1.05541       0.996339        1.00958      -0.00358882   4.73471e-05
  7823.6       0.838839        1.04732       0.998659        1.00714      -0.00238486  -0.000110088
  7827.22       0.824933        1.03885       0.990418        1.00434      -0.00438464   4.21333e-05
  7830.81       0.80723        1.03018       0.978339        1.00129      -0.00208112   0.000734934
  7834.44       0.809917        1.02123       0.986701       0.998012       0.000917904  -7.39235e-05
  7838.06       0.813881        1.01216       0.996336       0.994616      -0.00261677  -0.000366959
  7841.69       0.790941        1.00303       0.97908       0.991171      -0.00174328   0.000750667
  7845.32       0.801225       0.99394       0.995048       0.987763       0.00283307   0.0012607