File: Dynamic XAS/Dynamic XAS Energy analyzed data/ESweep_0_5 Hz/Same Eo/Normalized Spectra/Ir0_5Hz_ReaddMean_VPhsCorrect_5_159_mV_.csv.nor
# XDI/1.0 Athena/0.9.26
# Element.edge:                  K
# Element.symbol:                Co
# Column.1:                      energy eV
# Column.2:                      norm
# Column.3:                      nbkg
# Column.4:                      flat
# Column.5:                      fbkg
# Column.6:                      nder
# Column.7:                      nsec
# Athena.e0:                     7721.54
# Athena.eshift:                 0
# Athena.rbkg:                   1.0
# Athena.importance:             1
# Athena.standard:               None
# Athena.bkg_kweight:            3
# Athena.edge_step:              1.19464
# Athena.fixed_step:             no
# Athena.pre_edge_range:         -82.964 -19.904
# Athena.pre_edge_line:          0.175506 + 0.000191795 * E
# Athena.normalization_range:    45 125.256
# Athena.post_edge_polynomial:   15.6893 - 0.00166265 * E + 0 * E^2 + 0 * E^3
# Athena.spline_range_energy:    0.000 125.180
# Athena.clamps:                 0 24
# Athena.spline_range_k:         0.000 5.732
# Athena.kweight:                2
# Athena.window:                 hanning
# Athena.phase_correction:       no
# Athena.k_range:                .4 5.35
# Athena.dk:                     .5
# Athena.r_range:                .4 5.1
# Athena.dr:                     .5
# Athena.window:                 hanning
# Athena.plot_multiplier:        1
# Athena.y_offset:               0.2
# ///
#------------------------
#   e         norm        nbkg        flat        fbkg        nder        nsec
  7600.07      -0.215244      -0.0152439  -0.215244      -0.215244       0.0122232  -0.000512694
  7610.64      -0.0859957   0.114004      -0.0859957  -0.0859957   0.00680198  -0.000379102
  7624.56      -0.0486702   0.15133      -0.0486702  -0.0486702   0.00293939  -0.00020518
  7637.2      -0.00792844   0.192072      -0.00792844  -0.00792844   0.0013526  -0.000131123
  7649.7      -0.0146617   0.185338      -0.0146617  -0.0146617  -0.000357435   9.51947e-05
  7662.2      -0.016864   0.183136      -0.016864  -0.016864   0.00373238   2.39163e-05
  7674.73       0.0787746   0.278775       0.0787746   0.0787746   0.000241286  -0.000286306
  7687.33      -0.0108   0.1892      -0.0108  -0.0108  -0.00346307   3.96992e-06
  7700.01      -0.00876154   0.191238      -0.00876154  -0.00876154   0.000341634   0.000956905
  7700.39      -0.00633925   0.193661      -0.00633925  -0.00633925   0.00903124   0.00544232
  7700.72      -0.00235839   0.197642      -0.00235839  -0.00235839   0.00420024  -0.0213487
  7701.07      -0.00347049   0.19653      -0.00347049  -0.00347049  -0.0055499  -0.00163018
  7701.43      -0.00632657   0.193673      -0.00632657  -0.00632657   0.00303466   0.016203
  7701.8      -0.00126429   0.198736      -0.00126429  -0.00126429   0.00622966  -0.0104477
  7702.15      -0.00183498   0.198165      -0.00183498  -0.00183498  -0.00449812  -0.017011
  7702.52      -0.00448944   0.195511      -0.00448944  -0.00448944  -0.00596722   0.00251822
  7702.88      -0.00615525   0.193845      -0.00615525  -0.00615525  -0.00267493   0.00726389
  7703.24      -0.00643411   0.193566      -0.00643411  -0.00643411  -0.000686369   0.00750609
  7703.6      -0.00665012   0.19335      -0.00665012  -0.00665012   0.00273697   0.0118181
  7703.96      -0.00446624   0.195534      -0.00446624  -0.00446624   0.00781083   0.00203863
  7704.32      -0.00098727   0.199013      -0.00098727  -0.00098727   0.00421497  -0.013546
  7704.69      -0.00140617   0.198594      -0.00140617  -0.00140617  -0.00202355  -0.0111346
  7705.02      -0.00239364   0.197606      -0.00239364  -0.00239364  -0.00352358   0.00278202
  7705.38      -0.00385153   0.196148      -0.00385153  -0.00385153  -9.28344e-05   0.0269982
  7705.75      -0.00246132   0.197539      -0.00246132  -0.00246132   0.0161581   0.035052
  7706.11       0.00796002   0.20796       0.00796002   0.00796002   0.0255302   0.0178204
  7706.47       0.0159715   0.215971       0.0159715   0.0159715   0.0290244   0.0089677
  7706.83       0.0288285   0.228829       0.0288285   0.0288285   0.031978  -0.00243338
  7707.2       0.0391555   0.239156       0.0391555   0.0391555   0.0272602  -0.0208097
  7707.56       0.0486194   0.248619       0.0486194   0.0486194   0.0168701  -0.03298
  7707.91       0.0512851   0.251285       0.0512851   0.0512851   0.00354757  -0.0187836
  7708.28       0.0511843   0.251184       0.0511843   0.0511843   0.0032896  -0.00558063
  7708.65       0.0536898   0.25369       0.0536898   0.0536898  -0.000531863  -0.0166167
  7708.98       0.050811   0.250811       0.050811   0.050811  -0.00837535   0.00478609
  7709.29       0.0482961   0.248296       0.0482961   0.0482961   0.00255038   0.0267845
  7709.6       0.0523769   0.252377       0.0523769   0.0523769   0.00807031  -0.0109823
  7709.9       0.0532432   0.253243       0.0532432   0.0532432  -0.00418177  -0.0334403
  7710.21       0.0498051   0.249805       0.0498051   0.0498051  -0.0124955  -0.00775437
  7710.51       0.0456085   0.245608       0.0456085   0.0456085  -0.00891969   0.0145388
  7710.82       0.0443463   0.244346       0.0443463   0.0443463  -0.0035977   0.0295091
  7711.11       0.0434715   0.243471       0.0434715   0.0434715   0.00860874   0.0197361
  7711.42       0.0494512   0.249451       0.0494512   0.0494512   0.00810584  -0.0224812
  7711.73       0.0484728   0.248473       0.0484728   0.0484728  -0.00526213  -0.0152396
  7712.03       0.0462256   0.246226       0.0462256   0.0462256  -0.00123603  -0.00260922
  7712.33       0.0477212   0.247721       0.0477212   0.0477212  -0.00684854   0.00528816
  7712.64       0.0420137   0.242014       0.0420137   0.0420137   0.00201619   0.0445692
  7712.95       0.0489713   0.248971       0.0489713   0.0489713   0.0207844   0.042484
  7713.23       0.0542973   0.254297       0.0542973   0.0542973   0.0271242   0.0420012
  7713.54       0.064839   0.264839       0.064839   0.064839   0.0453551   0.0558719
  7713.85       0.0823267   0.282327       0.0823267   0.0823267   0.0616531   0.0464702
  7714.16       0.103249       0.303249       0.103249       0.103249       0.0743061   0.00789846
  7714.47       0.128174       0.328174       0.128174       0.128174       0.0665264  -0.0486027
  7714.78       0.144229       0.344229       0.144229       0.144229       0.0443668  -0.0417948
  7715.08       0.155104       0.355104       0.155104       0.155104       0.041157   0.00907646
  7715.39       0.169294       0.369294       0.169294       0.169294       0.0498944   0.00011127
  7715.67       0.184692       0.384692       0.184692       0.184692       0.041223  -0.0403617
  7715.97       0.19345       0.39345       0.19345       0.19345       0.0262424  -0.0293511
  7716.14       0.196947       0.396947       0.196947       0.196947       0.027516  -0.0165607
  7716.26       0.201237       0.401237       0.201237       0.201237       0.0215557   0.0452117
  7716.37       0.201905       0.401905       0.201905       0.201905       0.0379147   0.245848
  7716.5       0.210489       0.410489       0.210489       0.210489       0.0815427   0.134275
  7716.62       0.222535       0.422535       0.222535       0.222535       0.0718864  -0.114669
  7716.73       0.22731       0.42731       0.22731       0.22731       0.0547102  -0.11156
  7716.87       0.236048       0.436048       0.236048       0.236048       0.044331  -0.0608528
  7716.99       0.238614       0.438614       0.238614       0.238614       0.0391927   0.0467157
  7717.1       0.245219       0.445219       0.245219       0.245219       0.0552625  -0.0182968
  7717.23       0.252154       0.452154       0.252154       0.252154       0.03471   0.0529148
  7717.35       0.253862       0.453862       0.253862       0.253862       0.0684382   0.204762
  7717.46       0.267826       0.467826       0.267826       0.267826       0.0816005  -0.108516
  7717.59       0.27361       0.47361       0.27361       0.27361       0.0421773   0.0120355
  7717.71       0.278286       0.478286       0.278286       0.278286       0.0845853   0.287602
  7717.84       0.294756       0.494756       0.294756       0.294756       0.114078      -0.000776371
  7717.96       0.306805       0.506805       0.306805       0.306805       0.0843912  -0.139088
  7718.07       0.314335       0.514335       0.314335       0.314335       0.0818094   0.102081
  7718.21       0.326931       0.526931       0.326931       0.326931       0.109503       0.0482443
  7718.33       0.342148       0.542148       0.342148       0.342148       0.0940635  -0.201017
  7718.44       0.349036       0.549036       0.349036       0.349036       0.062264  -0.0955716
  7718.57       0.357403       0.557403       0.357403       0.357403       0.0706484   0.177045
  7718.69       0.366839       0.566839       0.366839       0.366839       0.106879       0.284251
  7718.81       0.382199       0.582199       0.382199       0.382199       0.136595      -0.00850907
  7718.94       0.400031       0.600031       0.400031       0.400031       0.104812      -0.0407352
  7719.06       0.408507       0.608507       0.408507       0.408507       0.12637       0.100321
  7719.17       0.429349       0.629349       0.429349       0.429349       0.128086       0.0237657
  7719.3       0.439632       0.639632       0.439632       0.439632       0.132145       0.264857
  7719.42       0.46265       0.66265       0.46265       0.46265       0.19483       0.0856233
  7719.53       0.485612       0.685612       0.485612       0.485612       0.152352      -0.287969
  7719.67       0.500129       0.700129       0.500129       0.500129       0.12399       0.0118604
  7719.79       0.516981       0.716981       0.516981       0.516981       0.155353       0.113487
  7719.9       0.536637       0.736637       0.536637       0.536637       0.150659       0.134975
  7720.03       0.554043       0.754043       0.554043       0.554043       0.188557       0.293226
  7720.15       0.584341       0.784341       0.584341       0.584341       0.224845       0.0262219
  7720.27       0.606432       0.806432       0.606432       0.606432       0.194667      -0.200656
  7720.4       0.631645       0.831645       0.631645       0.631645       0.176086      -0.10768
  7720.52       0.650278       0.850278       0.650278       0.650278       0.167854      -0.0169353
  7720.65       0.673441       0.873441       0.673441       0.673441       0.171869       0.191329
  7720.77       0.693245       0.893245       0.693245       0.693245       0.215687       0.272098
  7720.88       0.723696       0.923696       0.723696       0.723696       0.235268      -0.0710433
  7721.01       0.751356       0.951356       0.751356       0.751356       0.198139      -0.182879
  7721.13       0.774023       0.974023       0.774023       0.774023       0.188817      -0.0433453
  7721.25       0.79535       0.99535       0.79535       0.79535       0.18804       0.110366
  7721.38       0.820281        1.02028       0.820281       0.820281       0.215967       0.277208
  7721.5       0.850206        1.05021       0.850144       0.850144       0.25845       0.14461
  7721.61       0.8805        2.25421       0.880612        2.05432       0.249661      -0.123612
  7721.74       0.911123        2.23691       0.91144        2.03722       0.228289       0.0349177
  7721.86       0.937572        2.22158       0.938072        2.02208       0.258391      -0.132072
  7721.97       0.970553        2.20714       0.971227        2.00782       0.197912      -0.436897
  7722.1       0.985467        2.19053       0.986343        1.99141       0.152661       0.0429286
  7722.23        1.00902        2.17509        1.01009        1.97615       0.20873       0.242794
  7722.36        1.03848        2.15852        1.03975        1.95979       0.214331      -0.0741831
  7722.48        1.06325        2.14347        1.06471        1.94493       0.189962      -0.280823
  7722.59        1.08313        2.12942        1.08476        1.93105       0.148338      -0.399094
  7722.72        1.09959        2.11341        1.10143        1.91525       0.0921841  -0.151699
  7722.85        1.10645        2.09863        1.10848        1.90066       0.109958       0.385312
  7722.96        1.12532        2.08519        1.12752        1.88739       0.182347       0.26283
  7723.05        1.14383        2.0741        1.14617        1.87645       0.163838      -0.229159
  7723.21        1.1671        2.05498        1.1697        1.85758       0.123911      -0.134906
  7723.41        1.18782        2.03249        1.19071        1.83539       0.115946      -0.001642
  7723.6        1.21232        2.00987        1.21552        1.81308       0.123271      -0.0336794
  7723.8        1.23639        1.98759        1.23989        1.79109       0.102677      -0.147092
  7724        1.25308        1.9653        1.2569        1.76911       0.0648756  -0.217084
  7724.2        1.26221        1.94356        1.26633        1.74769       0.0162773  -0.159217
  7724.4        1.25953        1.92216        1.26396        1.72659       0.00182565  -0.00239089
  7724.59        1.26293        1.90129        1.26766        1.70603       0.0153352  -0.0206093
  7724.79        1.26556        1.88064        1.2706        1.68568      -0.0062738  -0.118044
  7725.01        1.26032        1.85805        1.2657        1.66343      -0.0337712  -0.0362386
  7725.72        1.23401        1.78701        1.24051        1.5935      -0.0401207  -0.00678106
  7726.51        1.20018        1.71376        1.20789        1.52147      -0.043936   0.000895379
  7727.3        1.16464        1.64429        1.17358        1.45323      -0.0387069   0.00504118
  7728.07        1.13983        1.58195        1.14996        1.39208      -0.0360768   0.00621172
  7728.83        1.10951        1.5238        1.12083        1.33512      -0.0292154   0.0164196
  7729.59        1.09522        1.46978        1.10772        1.28228      -0.0110041   0.0181256
  7730.35        1.09275        1.41985        1.10643        1.23353      -0.00161005   0.00674579
  7731.15        1.09272        1.37168        1.10763        1.18659      -0.000521143   0.00100687
  7731.91        1.09194        1.32908        1.10804        1.14518      -4.2362e-05  -0.00556216
  7732.68        1.09265        1.28968        1.10994        1.10697      -0.00904237  -0.00616264
  7733.44        1.0781        1.25398        1.09657        1.07246      -0.00947737   0.00522434
  7734.21        1.07811        1.22104        1.09778        1.04071      -0.00102301  -0.000977733
  7734.98        1.07653        1.19165        1.09738        1.01251      -0.0109782  -0.00886866
  7735.77        1.06097        1.16396        1.08307       0.986062      -0.014867   0.00672499
  7736.54        1.05329        1.14035        1.07657       0.963632      -0.000467021   0.00606104
  7737.31        1.06025        1.11923        1.08473       0.94371      -0.00556935  -0.0133218
  7738.08        1.04472        1.10069        1.07039       0.92636      -0.0209693  -0.00817093
  7738.84        1.02806        1.08461        1.05492       0.911467      -0.0181117   0.0061987
  7739.62        1.01686        1.07067        1.04492       0.898728      -0.0114357   0.00267649
  7740.39        1.01041        1.05887        1.03967       0.888125      -0.0139792  -0.00533524
  7741.16       0.995266        1.04905        1.02572       0.879505      -0.0196786  -0.00657705
  7741.95       0.97963        1.04092        1.01132       0.872603      -0.0242657  -0.000693529
  7744.45       0.915407        1.02625       0.950974       0.861812      -0.021961   0.00164805
  7746.97       0.869451        1.02458       0.908925       0.864058      -0.0159974   0.00185266
  7749.45       0.835404        1.031       0.878734       0.874334      -0.0126959   0.00100857
  7751.94       0.806404        1.04063       0.853586       0.887811      -0.0109889   0.000981806
  7754.45       0.780438        1.05001       0.831532       0.901102      -0.00778489   0.00203789
  7756.95       0.76737        1.05841       0.822336       0.91338      -0.000770902   0.00266912
  7759.43       0.776603        1.06594       0.835419       0.924754       0.00549396   0.00175362
  7761.95       0.794829        1.07274       0.857553       0.935462       0.00799369   0.00109429
  7764.47       0.816875        1.07874       0.883512       0.945374       0.011007   0.00058113
  7766.97       0.850062        1.0839       0.920576       0.954416       0.0109098   9.75065e-05
  7769.46       0.871358        1.08832       0.945748       0.96271       0.011494  -4.06402e-05
  7771.99       0.907785        1.09205       0.986094       0.970363       0.0107057  -0.00133524
  7774.49       0.925165        1.09505        1.00736       0.97724       0.00478302  -0.00172724
  7777       0.931748        1.09738        1.01783       0.983463       0.00205221  -0.000629996
  7780.56       0.93763        1.09957        1.02925       0.991188       0.000956426  -0.000831387
  7784.15       0.938588        1.10052        1.03578       0.997705      -0.00389387  -0.000598484
  7787.69       0.909863        1.10029        1.01255        1.00298      -0.00331136   0.000625294
  7791.28       0.914968        1.09896        1.02323        1.00722       0.000566351   0.000287311
  7794.86       0.913923        1.09659        1.02774        1.01041      -0.00125163  -0.000531846
  7798.44       0.906014        1.09327        1.02538        1.01264      -0.00323848  -0.000311117
  7802.02       0.890759        1.08907        1.01568        1.01399      -0.00347704  -2.91123e-05
  7805.61       0.881056        1.08402        1.01156        1.01453      -0.00344745   0.000134774
  7809.2       0.865975        1.07825        1.00206        1.01433      -0.00250815   0.000516067
  7812.81       0.86301        1.07178        1.00469        1.01346       0.000265654  -5.43856e-06
  7816.38       0.867881        1.06479        1.0151        1.01201      -0.00254719  -0.000561069
  7819.99       0.844708        1.0572       0.997538        1.01003      -0.00376563   6.79985e-06
  7823.6       0.840679        1.04916       0.999114        1.0076      -0.00249807  -8.93965e-05
  7827.22       0.82665        1.04074       0.990701        1.00479      -0.00441187   2.46188e-05
  7830.81       0.808873        1.03209       0.978499        1.00172      -0.00232059   0.000730788
  7834.44       0.809907        1.02315       0.985158       0.9984       0.00086076  -3.81237e-05
  7838.06       0.81511        1.01407       0.995985       0.99494      -0.00259683  -0.000355344
  7841.69       0.791074        1.0049       0.977583       0.991408      -0.00171619   0.000796964
  7845.32       0.802651       0.995744       0.994795       0.987888       0.00318912   0.00135133