File: Dynamic XAS/Dynamic XAS Energy analyzed data/ESweep_0_5 Hz/Same Eo/Normalized Spectra/Ir0_5Hz_ReaddMean_VPhsCorrect_4_134_mV_.csv.nor
# XDI/1.0 Athena/0.9.26
# Element.edge:                  K
# Element.symbol:                Co
# Column.1:                      energy eV
# Column.2:                      norm
# Column.3:                      nbkg
# Column.4:                      flat
# Column.5:                      fbkg
# Column.6:                      nder
# Column.7:                      nsec
# Athena.e0:                     7721.54
# Athena.eshift:                 0
# Athena.rbkg:                   1.0
# Athena.importance:             1
# Athena.standard:               None
# Athena.bkg_kweight:            3
# Athena.edge_step:              1.19348
# Athena.fixed_step:             no
# Athena.pre_edge_range:         -82.964 -19.904
# Athena.pre_edge_line:          0.174007 + 0.000192021 * E
# Athena.normalization_range:    45 125.256
# Athena.post_edge_polynomial:   15.6027 - 0.00165156 * E + 0 * E^2 + 0 * E^3
# Athena.spline_range_energy:    0.000 125.180
# Athena.clamps:                 0 24
# Athena.spline_range_k:         0.000 5.732
# Athena.kweight:                2
# Athena.window:                 hanning
# Athena.phase_correction:       no
# Athena.k_range:                .4 5.35
# Athena.dk:                     .5
# Athena.r_range:                .4 5.1
# Athena.dr:                     .5
# Athena.window:                 hanning
# Athena.plot_multiplier:        1
# Athena.y_offset:               0.2
# ///
#------------------------
#   e         norm        nbkg        flat        fbkg        nder        nsec
  7600.07      -0.216057      -0.0160571  -0.216057      -0.216057       0.0123124  -0.000515189
  7610.64      -0.0858654   0.114135      -0.0858654  -0.0858654   0.00686483  -0.000383827
  7624.56      -0.0479442   0.152056      -0.0479442  -0.0479442   0.0029129  -0.000207961
  7637.2      -0.00850157   0.191498      -0.00850157  -0.00850157   0.00134159  -0.000129181
  7649.7      -0.0142126   0.185787      -0.0142126  -0.0142126  -0.000335091   9.59222e-05
  7662.2      -0.0168785   0.183121      -0.0168785  -0.0168785   0.00373955   2.27224e-05
  7674.73       0.0794033   0.279403       0.0794033   0.0794033   0.000233741  -0.000287988
  7687.33      -0.0110041   0.188996      -0.0110041  -0.0110041  -0.00349816   5.53479e-06
  7700.01      -0.00901973   0.19098      -0.00901973  -0.00901973   0.000373644   0.00101867
  7700.39      -0.00612546   0.193875      -0.00612546  -0.00612546   0.00980257   0.00544663
  7700.72      -0.00206971   0.19793      -0.00206971  -0.00206971   0.00423531  -0.0241009
  7701.07      -0.00323275   0.196767      -0.00323275  -0.00323275  -0.00665833  -0.0026447
  7701.43      -0.00683041   0.19317      -0.00683041  -0.00683041   0.00234435   0.0182985
  7701.8      -0.00152841   0.198472      -0.00152841  -0.00152841   0.00664472  -0.00903115
  7702.15      -0.00203957   0.19796      -0.00203957  -0.00203957  -0.00416711  -0.0180043
  7702.52      -0.00451623   0.195484      -0.00451623  -0.00451623  -0.00626436   0.00210232
  7702.88      -0.00657497   0.193425      -0.00657497  -0.00657497  -0.00264504   0.00859259
  7703.24      -0.00643917   0.193561      -0.00643917  -0.00643917  -1.75443e-05   0.00581457
  7703.6      -0.00658761   0.193412      -0.00658761  -0.00658761   0.00154727   0.0102064
  7703.96      -0.00532669   0.194673      -0.00532669  -0.00532669   0.00732088   0.00553488
  7704.32      -0.00127998   0.19872      -0.00127998  -0.00127998   0.00556005  -0.0117186
  7704.69      -0.00129009   0.19871      -0.00129009  -0.00129009  -0.00118683  -0.0139898
  7705.02      -0.00210482   0.197895      -0.00210482  -0.00210482  -0.00416283  -0.000155097
  7705.38      -0.00417909   0.195821      -0.00417909  -0.00417909  -0.00129446   0.029724
  7705.75      -0.00304849   0.196952      -0.00304849  -0.00304849   0.017506   0.0386834
  7706.11       0.00861777   0.208618       0.00861777   0.00861777   0.0269831   0.0150955
  7706.47       0.0164333   0.216433       0.0164333   0.0164333   0.0284049   0.00619879
  7706.83       0.0290409   0.229041       0.0290409   0.0290409   0.03144  -0.00235122
  7707.2       0.0392273   0.239227       0.0392273   0.0392273   0.0267003  -0.0202131
  7707.56       0.0484253   0.248425       0.0484253   0.0484253   0.0167654  -0.0310338
  7707.91       0.0512816   0.251282       0.0512816   0.0512816   0.00438698  -0.0195912
  7708.28       0.0515971   0.251597       0.0515971   0.0515971   0.00260089  -0.00798985
  7708.65       0.0531829   0.253183       0.0531829   0.0531829  -0.0014536  -0.0140415
  7708.98       0.0505767   0.250577       0.0505767   0.0505767  -0.00725624   0.00718728
  7709.29       0.0485099   0.24851       0.0485099   0.0485099   0.003175   0.0237195
  7709.6       0.0525261   0.252526       0.0525261   0.0525261   0.00730751  -0.0133014
  7709.9       0.0529894   0.252989       0.0529894   0.0529894  -0.00497874  -0.0331144
  7710.21       0.0494642   0.249464       0.0494642   0.0494642  -0.0130578  -0.00629374
  7710.51       0.045011   0.245011       0.045011   0.045011  -0.00882422   0.0186977
  7710.82       0.0440638   0.244064       0.0440638   0.0440638  -0.00161484   0.0302701
  7711.11       0.0440518   0.244052       0.0440518   0.0440518   0.00915623   0.0145565
  7711.42       0.0494934   0.249493       0.0494934   0.0494934   0.00701714  -0.021749
  7711.73       0.0483814   0.248381       0.0483814   0.0483814  -0.00426289  -0.0126601
  7712.03       0.0468803   0.24688       0.0468803   0.0468803  -0.000743513  -0.00567212
  7712.33       0.0479293   0.247929       0.0479293   0.0479293  -0.00771154   0.00427372
  7712.64       0.0421377   0.242138       0.0421377   0.0421377   0.00188482   0.0454069
  7712.95       0.0490979   0.249098       0.0490979   0.0490979   0.0204407   0.0436545
  7713.23       0.0542182   0.254218       0.0542182   0.0542182   0.0276847   0.04302
  7713.54       0.0652935   0.265293       0.0652935   0.0652935   0.0456074   0.0550804
  7713.85       0.0824036   0.282404       0.0824036   0.0824036   0.0617243   0.0483648
  7714.16       0.103748       0.303748       0.103748       0.103748       0.0757387   0.0106674
  7714.47       0.129134       0.329134       0.129134       0.129134       0.0683061  -0.0506974
  7714.78       0.145824       0.345824       0.145824       0.145824       0.0445091  -0.0466378
  7715.08       0.156151       0.356151       0.156151       0.156151       0.039997   0.0121427
  7715.39       0.170182       0.370182       0.170182       0.170182       0.051904   0.00447884
  7715.67       0.18693       0.38693       0.18693       0.18693       0.0426529  -0.0478739
  7715.97       0.195177       0.395177       0.195177       0.195177       0.0238499  -0.0318938
  7716.14       0.198068       0.398068       0.198068       0.198068       0.0277585   0.00923449
  7716.26       0.203033       0.403033       0.203033       0.203033       0.0264633   0.0267447
  7716.37       0.204155       0.404155       0.204155       0.204155       0.0339098   0.210368
  7716.5       0.211307       0.411307       0.211307       0.211307       0.077793   0.165306
  7716.62       0.223837       0.423837       0.223837       0.223837       0.0757321  -0.084881
  7716.73       0.229028       0.429028       0.229028       0.229028       0.0579308  -0.130736
  7716.87       0.238145       0.438145       0.238145       0.238145       0.0434403  -0.0718675
  7716.99       0.240105       0.440105       0.240105       0.240105       0.0396046   0.0493377
  7717.1       0.247413       0.447413       0.247413       0.247413       0.0549854  -0.035565
  7717.23       0.253577       0.453577       0.253577       0.253577       0.0308912   0.0393902
  7717.35       0.255105       0.455105       0.255105       0.255105       0.0647935   0.234801
  7717.46       0.268414       0.468414       0.268414       0.268414       0.0846605  -0.0632868
  7717.59       0.275593       0.475593       0.275593       0.275593       0.0494781   0.0045131
  7717.71       0.280685       0.480685       0.280685       0.280685       0.0857798   0.254287
  7717.84       0.297038       0.497038       0.297038       0.297038       0.11305       0.00380039
  7717.96       0.308947       0.508947       0.308947       0.308947       0.0867299  -0.125478
  7718.07       0.317159       0.517159       0.317159       0.317159       0.0839388   0.0630509
  7718.21       0.329596       0.529596       0.329596       0.329596       0.10224       0.0384133
  7718.33       0.343128       0.543128       0.343128       0.343128       0.0936958  -0.126516
  7718.44       0.351615       0.551615       0.351615       0.351615       0.0725092  -0.0979434
  7718.57       0.360893       0.560893       0.360893       0.360893       0.0696997   0.12246
  7718.69       0.369179       0.569179       0.369179       0.369179       0.103369       0.305128
  7718.81       0.384874       0.584874       0.384874       0.384874       0.140489       0.0137378
  7718.94       0.403318       0.603318       0.403318       0.403318       0.106707      -0.0605331
  7719.06       0.411658       0.611658       0.411658       0.411658       0.125296       0.0844987
  7719.17       0.432387       0.632387       0.432387       0.432387       0.126311       0.0261082
  7719.3       0.442352       0.642352       0.442352       0.442352       0.13164       0.283735
  7719.42       0.46556       0.66556       0.46556       0.46556       0.197812       0.0983787
  7719.53       0.489035       0.689035       0.489035       0.489035       0.154857      -0.29922
  7719.67       0.503655       0.703655       0.503655       0.503655       0.124204      -0.00681557
  7719.79       0.520459       0.720459       0.520459       0.520459       0.153133       0.117422
  7719.9       0.539641       0.739641       0.539641       0.539641       0.151798       0.155981
  7720.03       0.557801       0.757801       0.557801       0.557801       0.191504       0.270975
  7720.15       0.588092       0.788092       0.588092       0.588092       0.220355       0.011152
  7720.27       0.609144       0.809144       0.609144       0.609144       0.194103      -0.165197
  7720.4       0.635259       0.835259       0.635259       0.635259       0.180212      -0.109134
  7720.52       0.654017       0.854017       0.654017       0.654017       0.166928      -0.0322717
  7720.65       0.676824       0.876824       0.676824       0.676824       0.172177       0.196825
  7720.77       0.697061       0.897061       0.697061       0.697061       0.216135       0.259607
  7720.88       0.727183       0.927183       0.727183       0.727183       0.232665      -0.0668299
  7721.01       0.75453       0.95453       0.75453       0.75453       0.199628      -0.175055
  7721.13       0.777889       0.977889       0.777889       0.777889       0.188201      -0.0561491
  7721.25       0.79838       0.99838       0.79838       0.79838       0.186545       0.12208
  7721.38       0.823779        1.02378       0.823779       0.823779       0.218233       0.293522
  7721.5       0.853812        1.05381       0.85375       0.85375       0.261099       0.141257
  7721.61       0.884615        2.2564       0.884726        2.05652       0.251146      -0.169344
  7721.74       0.915091        2.23908       0.915406        2.03939       0.21978      -0.00325498
  7721.86       0.93956        2.22372       0.940057        2.02422       0.250332      -0.101231
  7721.97       0.972668        2.20926       0.973338        2.00993       0.196496      -0.39352
  7722.1       0.987112        2.19263       0.987983        1.9935       0.1551       0.0651225
  7722.23        1.01175        2.17715        1.01281        1.97821       0.212907       0.220259
  7722.36        1.04119        2.16056        1.04245        1.96183       0.211046      -0.118188
  7722.48        1.06515        2.14549        1.0666        1.94694       0.183006      -0.267057
  7722.59        1.0842        2.13141        1.08582        1.93304       0.148288      -0.354832
  7722.72        1.10148        2.11538        1.10331        1.9172       0.0960719  -0.155566
  7722.85        1.1085        2.10058        1.11052        1.9026       0.108929       0.342914
  7722.96        1.12697        2.08711        1.12916        1.8893       0.176314       0.251166
  7723.05        1.14465        2.07601        1.14698        1.87834       0.160418      -0.204541
  7723.21        1.16787        2.05685        1.17046        1.85944       0.124156      -0.13266
  7723.41        1.18872        2.03433        1.19161        1.83721       0.113324      -0.00702167
  7723.6        1.21207        2.01167        1.21526        1.81486       0.121417      -0.0202061
  7723.8        1.23656        1.98935        1.24005        1.79284       0.105363      -0.152651
  7724        1.2539        1.96702        1.2577        1.77082       0.0608149  -0.234861
  7724.2        1.26077        1.94526        1.26487        1.74936       0.0118881  -0.13906
  7724.4        1.25861        1.92382        1.26302        1.72823       0.00574713   0.0117089
  7724.59        1.26303        1.90292        1.26774        1.70763       0.0165014  -0.0382493
  7724.79        1.26509        1.88223        1.27011        1.68725      -0.00928484  -0.120269
  7725.01        1.25917        1.85961        1.26452        1.66496      -0.0335306  -0.0334826
  7725.72        1.23377        1.78845        1.24024        1.59491      -0.0405576  -0.0066322
  7726.51        1.19837        1.71508        1.20604        1.52275      -0.0434723   0.00268455
  7727.3        1.16513        1.6455        1.17403        1.4544      -0.0363187   0.00484639
  7728.07        1.14175        1.58307        1.15183        1.39315      -0.0359167   0.00418151
  7728.83        1.11025        1.52483        1.12151        1.33609      -0.0299293   0.0163265
  7729.59        1.09605        1.47073        1.10849        1.28317      -0.0109861   0.0186046
  7730.35        1.09352        1.42072        1.10713        1.23433      -0.00159448   0.00661156
  7731.15        1.09357        1.37247        1.10841        1.18731      -0.000711761   0.000769065
  7731.91        1.09241        1.32982        1.10843        1.14583      -0.000397048  -0.00538138
  7732.68        1.09296        1.29035        1.11017        1.10756      -0.00895603  -0.00587944
  7733.44        1.0787        1.25461        1.09708        1.07299      -0.00939848   0.00576404
  7734.21        1.07854        1.22162        1.09811        1.0412      -0.000108228  -0.000690429
  7734.98        1.07853        1.19219        1.09929        1.01294      -0.0104583  -0.00953376
  7735.77        1.06221        1.16447        1.0842       0.986454      -0.0149904   0.00602128
  7736.54        1.0551        1.14082        1.07827       0.963988      -0.00104703   0.00569272
  7737.31        1.0606        1.11968        1.08496       0.944034      -0.0062578  -0.0129983
  7738.08        1.04547        1.10111        1.07102       0.926656      -0.0210514  -0.00780774
  7738.84        1.02829        1.08501        1.05502       0.911739      -0.0182427   0.0063023
  7739.62        1.01742        1.07106        1.04534       0.898979      -0.0113585   0.00266567
  7740.39        1.01075        1.05924        1.03987       0.888359      -0.0141269  -0.00550412
  7741.16       0.995589        1.04942        1.0259       0.879726      -0.0198624  -0.00651955
  7741.95       0.979688        1.04128        1.01122       0.872813      -0.0243235  -0.000611378
  7744.45       0.915541        1.02661       0.950933       0.862006      -0.0218744   0.00165479
  7746.97       0.869944        1.02497       0.909224       0.864255      -0.0160214   0.00184069
  7749.45       0.835418        1.03143       0.878535       0.874544      -0.0126691   0.00106514
  7751.94       0.807029        1.04109       0.853981       0.888037      -0.0107319   0.000983561
  7754.45       0.781737        1.0505       0.832581       0.901339      -0.00774936   0.00198668
  7756.95       0.768174        1.05893       0.822871       0.913623      -0.000770715   0.00260778
  7759.43       0.777903        1.06647       0.836432       0.924997       0.00522434   0.00174116
  7761.95       0.794285        1.07329       0.856702       0.935702       0.0079316   0.00118534
  7764.47       0.817862        1.0793       0.884173       0.945607       0.0111961   0.000570569
  7766.97       0.850467        1.08447       0.920636       0.954638       0.0107947   2.56727e-05
  7769.46       0.871771        1.08889       0.945796       0.962918       0.0113243  -2.21407e-05
  7771.99       0.907338        1.09263       0.985264       0.970554       0.0106835  -0.00125438
  7774.49       0.925466        1.09562        1.00726       0.977413       0.00501981  -0.00170046
  7777       0.932487        1.09795        1.01815       0.983615       0.0021642  -0.000668107
  7780.56       0.938612        1.10014        1.02978       0.991309       0.000961732  -0.00087111
  7784.15       0.939365        1.10108        1.03608       0.997793      -0.00406598  -0.000599391
  7787.69       0.909617        1.10085        1.0118        1.00303      -0.00331252   0.000677825
  7791.28       0.915737        1.09951        1.02347        1.00724       0.000768951   0.000270584
  7794.86       0.91513        1.09714        1.02839        1.0104      -0.00137271  -0.000580798
  7798.44       0.905917        1.09382        1.0247        1.01261      -0.00338608  -0.000277171
  7802.02       0.890909        1.08963        1.01522        1.01394      -0.00335531   5.73357e-06
  7805.61       0.881832        1.08459        1.0117        1.01446      -0.00334492   0.000121936
  7809.2       0.866862        1.07884        1.00228        1.01425      -0.00247872   0.000503922
  7812.81       0.863998        1.0724        1.00498        1.01339       0.000280791  -6.95802e-06
  7816.38       0.868878        1.06545        1.01538        1.01195      -0.00252865  -0.000567408
  7819.99       0.84583        1.0579       0.997913        1.00999      -0.00379604  -2.05695e-06
  7823.6       0.841455        1.04993       0.999116        1.00759      -0.00254351  -7.88814e-05
  7827.22       0.827443        1.04159       0.990692        1.00484      -0.00436627   2.01758e-05
  7830.81       0.809979        1.03304       0.978775        1.00183      -0.00239807   0.000713918
  7834.44       0.810141        1.0242       0.984535       0.998597       0.000784648  -2.0635e-05
  7838.06       0.815664        1.01525       0.995654       0.995239      -0.00254759  -0.000330512
  7841.69       0.791665        1.00623       0.977262       0.991827      -0.00161223   0.000817405
  7845.32       0.803959       0.997245       0.995164       0.98845       0.00338677   0.00137714