File: Dynamic XAS/Dynamic XAS Energy analyzed data/ESweep_0_5 Hz/Same Eo/Normalized Spectra/Ir0_5Hz_ReaddMean_VPhsCorrect_22_77_mV_.csv.nor
# XDI/1.0 Athena/0.9.26
# Element.edge:                  K
# Element.symbol:                Co
# Column.1:                      energy eV
# Column.2:                      norm
# Column.3:                      nbkg
# Column.4:                      flat
# Column.5:                      fbkg
# Column.6:                      nder
# Column.7:                      nsec
# Athena.e0:                     7721.54
# Athena.eshift:                 0
# Athena.rbkg:                   1.0
# Athena.importance:             1
# Athena.standard:               None
# Athena.bkg_kweight:            3
# Athena.edge_step:              1.19429
# Athena.fixed_step:             no
# Athena.pre_edge_range:         -82.964 -19.904
# Athena.pre_edge_line:          0.229424 + 0.000184789 * E
# Athena.normalization_range:    45 125.256
# Athena.post_edge_polynomial:   15.6504 - 0.00165767 * E + 0 * E^2 + 0 * E^3
# Athena.spline_range_energy:    0.000 125.180
# Athena.clamps:                 0 24
# Athena.spline_range_k:         0.000 5.732
# Athena.kweight:                2
# Athena.window:                 hanning
# Athena.phase_correction:       no
# Athena.k_range:                .4 5.35
# Athena.dk:                     .5
# Athena.r_range:                .4 5.1
# Athena.dr:                     .5
# Athena.window:                 hanning
# Athena.plot_multiplier:        1
# Athena.y_offset:               0.2
# ///
#------------------------
#   e         norm        nbkg        flat        fbkg        nder        nsec
  7600.07      -0.214051      -0.0140515  -0.214051      -0.214051       0.0120148  -0.000496776
  7610.64      -0.0870067   0.112993      -0.0870067  -0.0870067   0.00676191  -0.000368502
  7624.56      -0.0484591   0.151541      -0.0484591  -0.0484591   0.00299058  -0.000204073
  7637.2      -0.00757987   0.19242      -0.00757987  -0.00757987   0.00134193  -0.000130996
  7649.7      -0.014719   0.185281      -0.014719  -0.014719  -0.000303053   9.0181e-05
  7662.2      -0.0151559   0.184844      -0.0151559  -0.0151559   0.00359636   1.9544e-05
  7674.73       0.0753123   0.275312       0.0753123   0.0753123   0.000186212  -0.000275029
  7687.33      -0.010476   0.189524      -0.010476  -0.010476  -0.00331567   5.9145e-06
  7700.01      -0.00849795   0.191502      -0.00849795  -0.00849795   0.000335713   0.000965497
  7700.39      -0.00609262   0.193907      -0.00609262  -0.00609262   0.00929082   0.00619652
  7700.72      -0.00191076   0.198089      -0.00191076  -0.00191076   0.00472905  -0.0220456
  7701.07      -0.00286268   0.197137      -0.00286268  -0.00286268  -0.00576632  -0.00492342
  7701.43      -0.00603368   0.193966      -0.00603368  -0.00603368   0.0012088   0.0150143
  7701.8      -0.00198388   0.198016      -0.00198388  -0.00198388   0.00514908  -0.00544828
  7702.15      -0.00232119   0.197679      -0.00232119  -0.00232119  -0.00271941  -0.0148033
  7702.52      -0.0039337   0.196066      -0.0039337  -0.0039337  -0.00546486  -0.00157411
  7702.88      -0.00627775   0.193722      -0.00627775  -0.00627775  -0.00385906   0.00613718
  7703.24      -0.00673924   0.193261      -0.00673924  -0.00673924  -0.00100313   0.00825686
  7703.6      -0.007001   0.192999      -0.007001  -0.007001   0.00209413   0.013144
  7703.96      -0.00523356   0.194766      -0.00523356  -0.00523356   0.00844738   0.00266168
  7704.32      -0.000876654   0.199123      -0.000876654  -0.000876654   0.00402385  -0.0145521
  7704.69      -0.00231224   0.197688      -0.00231224  -0.00231224  -0.00211746  -0.00913847
  7705.02      -0.00234829   0.197652      -0.00234829  -0.00234829  -0.00232739   0.00270111
  7705.38      -0.00392745   0.196073      -0.00392745  -0.00392745  -0.000242893   0.0229237
  7705.75      -0.00252536   0.197475      -0.00252536  -0.00252536   0.014384   0.0330581
  7706.11       0.00658727   0.206587       0.00658727   0.00658726   0.0239226   0.020255
  7706.47       0.0147467   0.214747       0.0147467   0.0147467   0.0290082   0.0103933
  7706.83       0.0274441   0.227444       0.0274441   0.0274441   0.0313954  -0.00440974
  7707.2       0.0375084   0.237508       0.0375084   0.0375084   0.0258111  -0.017869
  7707.56       0.046183   0.246183       0.046183   0.046183   0.0184225  -0.0261949
  7707.91       0.0507541   0.250754       0.0507541   0.0507541   0.00697697  -0.0200558
  7708.28       0.0512273   0.251227       0.0512273   0.0512273   0.00392214  -0.00934975
  7708.65       0.0536212   0.253621       0.0536212   0.0536212   0.000142306  -0.0155558
  7708.98       0.0513272   0.251327       0.0513272   0.0513272  -0.006998   0.00223949
  7709.29       0.0491145   0.249114       0.0491145   0.0491145   0.00158454   0.0233552
  7709.6       0.0523001   0.2523       0.0523001   0.0523001   0.00734212  -0.00897673
  7709.9       0.0536152   0.253615       0.0536152   0.0536152  -0.0039182  -0.0372238
  7710.21       0.0498904   0.24989       0.0498904   0.0498904  -0.0155505  -0.0098866
  7710.51       0.0441138   0.244114       0.0441138   0.0441138  -0.00995891   0.0199744
  7710.82       0.0437956   0.243796       0.0437956   0.0437956  -0.00332619   0.0269428
  7711.11       0.0421381   0.242138       0.0421381   0.0421381   0.0060451   0.0116627
  7711.42       0.0473803   0.24738       0.0473803   0.0473803   0.00358978  -0.0229823
  7711.73       0.044353   0.244353       0.044353   0.044353  -0.008135  -0.0118763
  7712.03       0.0423936   0.242394       0.0423936   0.0423936  -0.00369042   0.00192768
  7712.33       0.0421092   0.242109       0.0421092   0.0421092  -0.00696297   0.0122625
  7712.64       0.0381114   0.238111       0.0381113   0.0381113   0.00385105   0.036236
  7712.95       0.0444969   0.244497       0.0444969   0.0444969   0.0155033   0.0315481
  7713.23       0.0472738   0.247274       0.0472738   0.0472738   0.0224959   0.0468683
  7713.54       0.057657   0.257657       0.057657   0.057657   0.0429213   0.0595077
  7713.85       0.0737992   0.273799       0.0737992   0.0737992   0.0592717   0.0570377
  7714.16       0.0945833   0.294583       0.0945833   0.0945833   0.0784558   0.0176344
  7714.47       0.122206       0.322206       0.122206       0.122206       0.0701521  -0.0555462
  7714.78       0.137797       0.337797       0.137797       0.137797       0.0442393  -0.0546199
  7715.08       0.14906       0.34906       0.14906       0.14906       0.0369978   0.00950465
  7715.39       0.160329       0.360329       0.160329       0.160329       0.0500277   0.0162677
  7715.67       0.178726       0.378726       0.178726       0.178726       0.0466446  -0.0557528
  7715.97       0.187662       0.387662       0.187662       0.187662       0.0173565  -0.0590075
  7716.14       0.186832       0.386832       0.186832       0.186832       0.0190881   0.059667
  7716.26       0.193064       0.393064       0.193064       0.193064       0.0342423   0.104531
  7716.37       0.194707       0.394707       0.194707       0.194707       0.0431301   0.186633
  7716.5       0.203588       0.403588       0.203588       0.203588       0.0797807   0.106511
  7716.62       0.214892       0.414892       0.214892       0.214892       0.0700774  -0.189762
  7716.73       0.219986       0.419986       0.219986       0.219986       0.0353765  -0.187437
  7716.87       0.22363       0.42363       0.22363       0.22363       0.0237805  -0.0146876
  7716.99       0.22605       0.42605       0.22605       0.22605       0.0316311   0.0749154
  7717.1       0.231031       0.431031       0.231031       0.231031       0.0413107   0.0587189
  7717.23       0.236171       0.436171       0.236171       0.236171       0.0460173   0.177677
  7717.35       0.24249       0.44249       0.24249       0.24249       0.0855522   0.0533889
  7717.46       0.255763       0.455763       0.255763       0.255763       0.0582433  -0.142412
  7717.59       0.256585       0.456585       0.256585       0.256585       0.0510885   0.108316
  7717.71       0.268433       0.468433       0.268433       0.268433       0.0851057   0.12777
  7717.84       0.277861       0.477861       0.277861       0.277861       0.0830311   0.0795008
  7717.96       0.289191       0.48919       0.28919       0.28919       0.104981       0.0643803
  7718.07       0.302217       0.502217       0.302217       0.302217       0.0979673  -0.109504
  7718.21       0.31329       0.51329       0.31329       0.31329       0.078043  -0.134291
  7718.33       0.32204       0.52204       0.32204       0.32204       0.0638574   0.0993355
  7718.44       0.328297       0.528297       0.328297       0.328297       0.101387       0.145019
  7718.57       0.346879       0.546879       0.346879       0.346879       0.099387  -0.0410231
  7718.69       0.353342       0.553342       0.353342       0.353342       0.091049   0.0231071
  7718.81       0.368003       0.568003       0.368003       0.368003       0.104748       0.0904947
  7718.94       0.378796       0.578796       0.378796       0.378796       0.113039       0.172328
  7719.06       0.396376       0.596376       0.396376       0.396376       0.148002       0.0395518
  7719.17       0.413133       0.613133       0.413133       0.413133       0.122215      -0.0572309
  7719.3       0.426074       0.626074       0.426074       0.426074       0.134095       0.1208
  7719.42       0.446925       0.646925       0.446925       0.446925       0.152657      -0.0040163
  7719.53       0.462101       0.662101       0.462101       0.462101       0.133147       0.0133313
  7719.67       0.479679       0.679679       0.479679       0.479679       0.155936       0.04049
  7719.79       0.501553       0.701553       0.501553       0.501553       0.143391       0.0163961
  7719.9       0.513376       0.713376       0.513376       0.513376       0.15979       0.267573
  7720.03       0.540861       0.740861       0.540861       0.540861       0.209214       0.187678
  7720.15       0.566307       0.766307       0.566307       0.566307       0.207272      -0.146693
  7720.27       0.589155       0.789155       0.589155       0.589155       0.175035      -0.0993479
  7720.4       0.60884       0.80884       0.60884       0.60884       0.183131      -0.0504661
  7720.52       0.634755       0.834755       0.634755       0.634755       0.162469      -0.039108
  7720.65       0.649295       0.849295       0.649295       0.649295       0.173393       0.222144
  7720.77       0.678103       0.878103       0.678103       0.678103       0.218005       0.169986
  7720.88       0.70009       0.90009       0.70009       0.70009       0.212999       0.0645101
  7721.01       0.730714       0.930714       0.730714       0.730714       0.233939      -0.111964
  7721.13       0.75951       0.95951       0.75951       0.75951       0.184561      -0.164393
  7721.25       0.773717       0.973717       0.773717       0.773717       0.195635       0.282192
  7721.38       0.807637        1.00764       0.807637       0.807637       0.25398       0.25902
  7721.5       0.838227        1.03823       0.838166       0.838166       0.261426      -0.102862
  7721.61       0.868549        2.27667       0.86866        2.07678       0.230013      -0.206197
  7721.74       0.894351        2.25904       0.894665        2.05935       0.211114       0.235332
  7721.86       0.921327        2.24342       0.921824        2.04391       0.288846       0.0291636
  7721.97       0.960785        2.22871       0.961455        2.02938       0.217822      -0.598109
  7722.1       0.97404        2.21178       0.97491        2.01265       0.144104       0.0553907
  7722.23       0.997099        2.19604       0.998158        1.9971       0.23178       0.306714
  7722.36        1.03291        2.17916        1.03417        1.98042       0.222009      -0.195826
  7722.48        1.05327        2.16382        1.05472        1.96527       0.182236      -0.196374
  7722.59        1.07574        2.1495        1.07736        1.95112       0.175861      -0.243836
  7722.72        1.09635        2.13318        1.09818        1.93501       0.122496      -0.221143
  7722.85        1.10673        2.11812        1.10874        1.92014       0.119912       0.20204
  7722.96        1.12441        2.10442        1.1266        1.90661       0.169774       0.263814
  7723.05        1.14153        2.09313        1.14386        1.89546       0.173994      -0.119054
  7723.21        1.16878        2.07364        1.17136        1.87622       0.139415      -0.136895
  7723.41        1.19103        2.05072        1.1939        1.8536       0.125396      -0.0109216
  7723.6        1.21769        2.02767        1.22087        1.83085       0.135155      -0.0478791
  7723.8        1.24428        2.00495        1.24776        1.80844       0.106532      -0.163938
  7724        1.25998        1.98224        1.26377        1.78603       0.0700721  -0.198453
  7724.2        1.27217        1.96009        1.27627        1.76419       0.0275471  -0.150617
  7724.4        1.27089        1.93827        1.27529        1.74268       0.0104279  -0.0135834
  7724.59        1.27627        1.91701        1.28098        1.72172       0.0221953  -0.0690045
  7724.79        1.27961        1.89596        1.28462        1.70097      -0.0166908  -0.137042
  7725.01        1.26933        1.87294        1.27468        1.67829      -0.034814  -0.0258921
  7725.72        1.24709        1.80054        1.25355        1.60699      -0.040874  -0.00979636
  7726.51        1.20806        1.72588        1.21572        1.53355      -0.0494988  -0.000595539
  7727.3        1.16894        1.65509        1.17782        1.46398      -0.0418144   0.00681141
  7728.07        1.14287        1.59155        1.15294        1.40162      -0.0388798   0.00866269
  7728.83        1.10953        1.53229        1.12077        1.34354      -0.0285778   0.0187747
  7729.59        1.09923        1.47724        1.11166        1.28966      -0.0102108   0.016405
  7730.35        1.09398        1.42635        1.10757        1.23994      -0.00359302   0.00757309
  7731.15        1.09365        1.37725        1.10847        1.19207       0.00155781   0.00332169
  7731.91        1.0964        1.33384        1.1124        1.14984       0.00157886  -0.00699444
  7732.68        1.09607        1.29368        1.11325        1.11086      -0.00915768  -0.00700944
  7733.44        1.08238        1.2573        1.10074        1.07566      -0.0091526   0.00439091
  7734.21        1.08202        1.22372        1.10157        1.04327      -0.00241763  -0.00101868
  7734.98        1.07867        1.19376        1.0994        1.01449      -0.0107163  -0.00821493
  7735.77        1.06529        1.16554        1.08725       0.987504      -0.0152411   0.0048678
  7736.54        1.05485        1.14147        1.07799       0.964612      -0.00310791   0.00665071
  7737.31        1.06052        1.11995        1.08485       0.944274      -0.00503896  -0.0106286
  7738.08        1.04709        1.10104        1.07261       0.926558      -0.0194652  -0.00754008
  7738.84        1.03064        1.08465        1.05734       0.911346      -0.016613   0.00544531
  7739.62        1.02154        1.07044        1.04943       0.898328      -0.0110904   0.000872146
  7740.39        1.01352        1.05841        1.0426       0.887488      -0.0152664  -0.00629431
  7741.16       0.997956        1.0484        1.02823       0.878668      -0.0208151  -0.00593956
  7741.95       0.980966        1.04011        1.01246       0.871599      -0.0245559  -0.000376466
  7744.45       0.917142        1.02514       0.952489       0.86049      -0.022054   0.0016518
  7746.97       0.870321        1.02344       0.909551       0.862668      -0.0162688   0.00178612
  7749.45       0.835782        1.02997       0.878844       0.873033      -0.0131216   0.000949157
  7751.94       0.805159        1.03977       0.85205       0.886664      -0.0115553   0.00105033
  7754.45       0.777983        1.04933       0.828761       0.900108      -0.00786785   0.0021794
  7756.95       0.76571        1.0579       0.820336       0.912523      -0.000627778   0.00269781
  7759.43       0.774859        1.06557       0.833313       0.924022       0.00555373   0.00166576
  7761.95       0.793467        1.07251       0.855804       0.934845       0.00769767   0.00118118
  7764.47       0.81364        1.07863       0.879866       0.944861       0.0115045   0.000707165
  7766.97       0.851197        1.08392       0.921275       0.953995       0.0112462  -0.000100013
  7769.46       0.869804        1.08844       0.943734       0.962371       0.011005  -2.58675e-05
  7771.99       0.906464        1.09227       0.98429       0.970097       0.0111163  -0.00116406
  7774.49       0.925674        1.09535        1.00736       0.977039       0.00515449  -0.0017631
  7777       0.932288        1.09776        1.01784       0.983317       0.0022832  -0.000712887
  7780.56       0.939543        1.10005        1.0306       0.991108       0.000824417  -0.000874259
  7784.15       0.938185        1.10109        1.03477       0.997678      -0.0039695  -0.000529551
  7787.69       0.911236        1.10094        1.01329        1.00299      -0.00295181   0.00062722
  7791.28       0.917129        1.09967        1.02472        1.00726       0.000504464   0.000239955
  7794.86       0.914853        1.09736        1.02797        1.01047      -0.00123157  -0.000510239
  7798.44       0.908319        1.09409        1.02695        1.01272      -0.00314579  -0.000347174
  7802.02       0.892351        1.08992        1.0165        1.01407      -0.00371491  -4.84835e-05
  7805.61       0.881653        1.08492        1.01136        1.01462      -0.0034938   0.000168175
  7809.2       0.867234        1.07918        1.00248        1.01442      -0.0025059   0.000503387
  7812.81       0.863623        1.07275        1.00443        1.01355       0.000128068   7.09371e-06
  7816.38       0.868153        1.06579        1.01447        1.01211      -0.00245499  -0.000542977
  7819.99       0.845984        1.05824       0.997872        1.01013      -0.00377322  -2.80346e-05
  7823.6       0.840895        1.05025       0.998354        1.00771      -0.00265751  -7.38011e-05
  7827.22       0.826773        1.04189       0.989813        1.00493      -0.00430673   6.59129e-05
  7830.81       0.809848        1.0333       0.978428        1.00188      -0.00218234   0.000741541
  7834.44       0.811027        1.02443       0.985198       0.998597       0.00104349  -7.94967e-05
  7838.06       0.817409        1.01543       0.997168       0.995186      -0.00275838  -0.000402464
  7841.69       0.791023        1.00636       0.976382       0.991717      -0.00187518   0.000864582
  7845.32       0.803795       0.997316       0.994754       0.988275       0.00351849   0.00148586