File: Dynamic XAS/Dynamic XAS Energy analyzed data/ESweep_0_5 Hz/Same Eo/Normalized Spectra/Ir0_5Hz_ReaddMean_VPhsCorrect_13_248_mV_.csv.nor
# XDI/1.0 Athena/0.9.26
# Element.edge:                  K
# Element.symbol:                Co
# Column.1:                      energy eV
# Column.2:                      norm
# Column.3:                      nbkg
# Column.4:                      flat
# Column.5:                      fbkg
# Column.6:                      nder
# Column.7:                      nsec
# Athena.e0:                     7721.54
# Athena.eshift:                 0
# Athena.rbkg:                   1.0
# Athena.importance:             1
# Athena.standard:               None
# Athena.bkg_kweight:            3
# Athena.edge_step:              1.19596
# Athena.fixed_step:             no
# Athena.pre_edge_range:         -82.964 -19.904
# Athena.pre_edge_line:          0.324661 + 0.000172405 * E
# Athena.normalization_range:    45 125.256
# Athena.post_edge_polynomial:   15.7599 - 0.0016717 * E + 0 * E^2 + 0 * E^3
# Athena.spline_range_energy:    0.000 125.180
# Athena.clamps:                 0 24
# Athena.spline_range_k:         0.000 5.732
# Athena.kweight:                2
# Athena.window:                 hanning
# Athena.phase_correction:       no
# Athena.k_range:                .4 5.35
# Athena.dk:                     .5
# Athena.r_range:                .4 5.1
# Athena.dr:                     .5
# Athena.window:                 hanning
# Athena.plot_multiplier:        1
# Athena.y_offset:               0.2
# ///
#------------------------
#   e         norm        nbkg        flat        fbkg        nder        nsec
  7600.07      -0.214852      -0.0148525  -0.214852      -0.214852       0.0120227  -0.000495954
  7610.64      -0.0877243   0.112276      -0.0877243  -0.0877243   0.00677851  -0.000368479
  7624.56      -0.0488537   0.151146      -0.0488537  -0.0488537   0.00299904  -0.000203537
  7637.2      -0.00807272   0.191927      -0.00807272  -0.00807272   0.00137278  -0.000131081
  7649.7      -0.0143379   0.185662      -0.0143379  -0.0143379  -0.000296726   9.00402e-05
  7662.2      -0.0154906   0.184509      -0.0154906  -0.0154906   0.00362369   1.946e-05
  7674.73       0.0763776   0.276378       0.0763776   0.0763776   0.000190437  -0.00027758
  7687.33      -0.0107045   0.189295      -0.0107045  -0.0107045  -0.00335246   7.31856e-06
  7700.01      -0.00836257   0.191637      -0.00836257  -0.00836256   0.000375428   0.00091876
  7700.39      -0.00580256   0.194197      -0.00580256  -0.00580256   0.0086438   0.00424402
  7700.72      -0.00223411   0.197766      -0.00223411  -0.00223411   0.00338444  -0.0211773
  7701.07      -0.00349099   0.196509      -0.00349099  -0.00349099  -0.00582029  -0.000876168
  7701.43      -0.00639562   0.193604      -0.00639562  -0.00639562   0.00275798   0.0164529
  7701.8      -0.00148594   0.198514      -0.00148594  -0.00148594   0.00614093  -0.0086266
  7702.15      -0.00196801   0.198032      -0.00196801  -0.00196801  -0.0034618  -0.0184257
  7702.52      -0.00396805   0.196032      -0.00396805  -0.00396805  -0.00707031   0.000285561
  7702.88      -0.00708692   0.192913      -0.00708692  -0.00708692  -0.00325505   0.00955323
  7703.24      -0.00633447   0.193666      -0.00633447  -0.00633447  -0.000125114   0.00812228
  7703.6      -0.00717712   0.192823      -0.00717712  -0.00717712   0.00260111   0.0121647
  7703.96      -0.00446428   0.195536      -0.00446428  -0.00446428   0.00862127   0.00406922
  7704.32      -0.000926702   0.199073      -0.000926701  -0.000926701   0.00555129  -0.0152221
  7704.69      -0.000434042   0.199566      -0.000434042  -0.000434042  -0.00242998  -0.0160498
  7705.02      -0.00261554   0.197384      -0.00261554  -0.00261554  -0.00560329   0.0028786
  7705.38      -0.00432272   0.195677      -0.00432272  -0.00432272  -0.000432233   0.029965
  7705.75      -0.00293063   0.197069      -0.00293063  -0.00293063   0.0162412   0.0350979
  7706.11       0.00754961   0.20755       0.00754961   0.00754961   0.0252243   0.0174809
  7706.47       0.0152813   0.215281       0.0152813   0.0152813   0.0288624   0.00886844
  7706.83       0.0283017   0.228302       0.0283017   0.0283017   0.0316007  -0.00431603
  7707.2       0.0381919   0.238192       0.0381919   0.0381919   0.0257333  -0.0202133
  7707.56       0.0469841   0.246984       0.0469841   0.0469841   0.0169258  -0.02801
  7707.91       0.0503615   0.250362       0.0503615   0.0503615   0.00559413  -0.0166245
  7708.28       0.0510287   0.251029       0.0510287   0.0510287   0.0049063  -0.007804
  7708.65       0.053948   0.253948       0.053948   0.053948  -0.000110592  -0.0174656
  7708.98       0.050951   0.250951       0.050951   0.050951  -0.00735453   0.00594877
  7709.29       0.0492117   0.249212       0.0492117   0.0492117   0.00372042   0.0239191
  7709.6       0.0532354   0.253235       0.0532354   0.0532354   0.00733179  -0.0163912
  7709.9       0.0537061   0.253706       0.0537061   0.0537061  -0.00632737  -0.0354536
  7710.21       0.049344   0.249344       0.049344   0.049344  -0.0144722  -0.00272533
  7710.51       0.0448636   0.244864       0.0448636   0.0448636  -0.00799254   0.0173447
  7710.82       0.0444526   0.244453       0.0444526   0.0444526  -0.00385723   0.0247039
  7711.11       0.0425724   0.242572       0.0425724   0.0425724   0.00668155   0.0136414
  7711.42       0.0484148   0.248415       0.0484148   0.0484148   0.00423214  -0.0206692
  7711.73       0.0451837   0.245184       0.0451836   0.0451836  -0.00607138  -0.0132185
  7712.03       0.044693   0.244693       0.044693   0.044693  -0.00387082  -0.00908237
  7712.33       0.0428302   0.24283       0.0428302   0.0428302  -0.0115935   0.0129046
  7712.64       0.037563   0.237563       0.037563   0.037563   0.00406552   0.0475764
  7712.95       0.0453508   0.245351       0.0453508   0.0453508   0.0179039   0.0341296
  7713.23       0.0481442   0.248144       0.0481442   0.0481442   0.0242361   0.04218
  7713.54       0.0595289   0.259529       0.0595289   0.0595289   0.0425792   0.0575903
  7713.85       0.0744581   0.274458       0.0744581   0.0744581   0.0598269   0.0482949
  7714.16       0.0968011   0.296801       0.0968011   0.0968011   0.0726669   0.0116313
  7714.47       0.119294       0.319294       0.119294       0.119294       0.0670034  -0.0349152
  7714.78       0.138075       0.338075       0.138075       0.138075       0.0511591  -0.0538697
  7715.08       0.150347       0.350347       0.150347       0.150347       0.0343045  -0.0173775
  7715.39       0.158967       0.358967       0.158967       0.158967       0.0405763   0.0185843
  7715.67       0.174409       0.374409       0.174409       0.174409       0.045325  -0.0145466
  7715.97       0.185527       0.385527       0.185527       0.185527       0.0320519  -0.0697245
  7716.14       0.189377       0.389377       0.189377       0.189377       0.0127637  -0.0168524
  7716.26       0.189139       0.389139       0.189139       0.189139       0.0272827   0.207017
  7716.37       0.195652       0.395652       0.195652       0.195652       0.0603776   0.124531
  7716.5       0.203871       0.403871       0.203871       0.203871       0.0576682  -0.0388432
  7716.62       0.210242       0.410242       0.210242       0.210242       0.0505503  -0.0185141
  7716.73       0.2157       0.4157       0.2157       0.2157       0.053336   0.0196053
  7716.87       0.223416       0.423416       0.223416       0.223416       0.0553928  -0.0443864
  7716.99       0.229825       0.429825       0.229825       0.229825       0.0420174  -0.0947109
  7717.1       0.233248       0.433248       0.233248       0.233248       0.0332304   0.0470512
  7717.23       0.237967       0.437967       0.237967       0.237967       0.053545   0.224299
  7717.35       0.246581       0.446581       0.246581       0.246581       0.0890808  -0.0392772
  7717.46       0.258366       0.458366       0.258366       0.258366       0.0445505  -0.234836
  7717.59       0.257362       0.457362       0.257362       0.257362       0.0322505   0.185545
  7717.71       0.266364       0.466364       0.266364       0.266364       0.0905658   0.23282
  7717.84       0.280004       0.480004       0.280004       0.280004       0.0904554  -0.0735002
  7717.96       0.288978       0.488978       0.288978       0.288978       0.0721907   0.0828164
  7718.07       0.296752       0.496752       0.296752       0.296752       0.109669       0.148574
  7718.21       0.315957       0.515957       0.315957       0.315957       0.10874      -0.190807
  7718.33       0.324372       0.524372       0.324372       0.324372       0.0612039  -0.14575
  7718.44       0.33034       0.53034       0.33034       0.33034       0.0744887   0.159614
  7718.57       0.342622       0.542622       0.342622       0.342622       0.100309       0.054343
  7718.69       0.355618       0.555618       0.355618       0.355618       0.0881831  -0.0138207
  7718.81       0.36308       0.56308       0.36308       0.36308       0.097103   0.191355
  7718.94       0.379214       0.579214       0.379214       0.379214       0.134682       0.254593
  7719.06       0.396885       0.596885       0.396885       0.396885       0.161006      -0.0300106
  7719.17       0.416567       0.616567       0.416567       0.416567       0.12772      -0.277002
  7719.3       0.427921       0.627921       0.427921       0.427921       0.0936943   0.0972134
  7719.42       0.440178       0.640178       0.440178       0.440178       0.152218       0.259544
  7719.53       0.463845       0.663845       0.463845       0.463845       0.154947      -0.121004
  7719.67       0.478295       0.678295       0.478295       0.478295       0.122451       0.0361984
  7719.79       0.494825       0.694825       0.494825       0.494825       0.164105       0.291886
  7719.9       0.51686       0.71686       0.51686       0.51686       0.191044       0.0430206
  7720.03       0.541822       0.741822       0.541822       0.541822       0.174688       0.098968
  7720.15       0.561056       0.761056       0.561056       0.561056       0.216083       0.0904463
  7720.27       0.592169       0.792169       0.592169       0.592169       0.195762      -0.323571
  7720.4       0.608626       0.808626       0.608626       0.608626       0.137455      -0.129528
  7720.52       0.626395       0.826395       0.626395       0.626395       0.163509       0.15246
  7720.65       0.64934       0.84934       0.64934       0.64934       0.175418       0.287685
  7720.77       0.67025       0.87025       0.67025       0.67025       0.235431       0.270502
  7720.88       0.704195       0.904195       0.704195       0.704195       0.238445      -0.184358
  7721.01       0.729146       0.929146       0.729146       0.729146       0.189894      -0.123146
  7721.13       0.752428       0.952428       0.752428       0.752428       0.207166       0.0696603
  7721.25       0.777415       0.977415       0.777415       0.777415       0.206125       0.0606314
  7721.38       0.803135        1.00314       0.803135       0.803135       0.222081       0.253021
  7721.5       0.833824        1.03382       0.833762       0.833762       0.270393       0.0998947
  7721.61       0.866137        2.26776       0.866248        2.06787       0.245356      -0.139698
  7721.74       0.893691        2.25027       0.894005        2.05058       0.236306       0.0859802
  7721.86       0.925213        2.23477       0.92571        2.03526       0.266851      -0.111494
  7721.97       0.955067        2.22017       0.955736        2.02084       0.210663      -0.417129
  7722.1       0.976193        2.20337       0.977063        2.00424       0.165906       0.0246382
  7722.23       0.996875        2.18775       0.997933        1.98881       0.216871       0.230996
  7722.36        1.03128        2.171        1.03254        1.97226       0.224579      -0.139339
  7722.48        1.05369        2.15579        1.05514        1.95724       0.181619      -0.272567
  7722.59        1.07396        2.14157        1.07558        1.9432       0.160526      -0.253405
  7722.72        1.09302        2.12538        1.09485        1.92721       0.119534      -0.116539
  7722.85        1.1042        2.11044        1.10622        1.91246       0.131042       0.236424
  7722.96        1.12369        2.09685        1.12587        1.89903       0.174858       0.192503
  7723.05        1.14005        2.08564        1.14238        1.88797       0.170505      -0.149529
  7723.21        1.16716        2.0663        1.16974        1.86888       0.136728      -0.117052
  7723.41        1.18859        2.04356        1.19146        1.84644       0.128951      -0.00687929
  7723.6        1.21746        2.02068        1.22064        1.82387       0.134045      -0.081263
  7723.8        1.2414        1.99815        1.24488        1.80163       0.0969336  -0.16204
  7724        1.25594        1.9756        1.25973        1.7794       0.0697148  -0.150577
  7724.2        1.26915        1.95362        1.27324        1.75772       0.0370039  -0.148467
  7724.4        1.27059        1.93198        1.275        1.73638       0.0109218  -0.0430033
  7724.59        1.27345        1.91088        1.27815        1.71558       0.0200605  -0.0367476
  7724.79        1.27848        1.88999        1.28349        1.695      -0.00352  -0.130012
  7725.01        1.27198        1.86714        1.27733        1.67249      -0.0340247  -0.0432321
  7725.72        1.2467        1.7953        1.25315        1.60175      -0.0438987  -0.0106895
  7726.51        1.20618        1.72121        1.21384        1.52887      -0.0500482   0.00119564
  7727.3        1.16767        1.65094        1.17656        1.45983      -0.0420108   0.00698079
  7728.07        1.14069        1.58789        1.15075        1.39795      -0.0391652   0.00898394
  7728.83        1.10783        1.52907        1.11907        1.34031      -0.0282834   0.0192711
  7729.59        1.0975        1.47442        1.10991        1.28683      -0.00973825   0.0162004
  7730.35        1.09299        1.4239        1.10658        1.23749      -0.0036101   0.00562347
  7731.15        1.09189        1.37516        1.1067        1.18997      -0.000999378   0.00479542
  7731.91        1.09144        1.33206        1.10743        1.14805       0.00385637  -0.00398405
  7732.68        1.09779        1.29218        1.11497        1.10936      -0.00710295  -0.00894917
  7733.44        1.08056        1.25606        1.09891        1.07441      -0.00984482   0.00355923
  7734.21        1.08268        1.22272        1.10223        1.04226      -0.00163953  -0.00214025
  7734.98        1.07805        1.19296        1.09877        1.01368      -0.0131301  -0.00919434
  7735.77        1.06219        1.16493        1.08414       0.986883      -0.0159919   0.00777462
  7736.54        1.05305        1.14102        1.07618       0.964147      -0.000978373   0.00730364
  7737.31        1.06069        1.11963        1.085       0.943946      -0.00478811  -0.0124874
  7738.08        1.04568        1.10084        1.07118       0.926345      -0.0201965  -0.00831239
  7738.84        1.02968        1.08455        1.05637       0.911229      -0.0175476   0.00626335
  7739.62        1.01869        1.07042        1.04657       0.89829      -0.0105634   0.00170754
  7740.39        1.01337        1.05845        1.04244       0.887512      -0.0149112  -0.00713639
  7741.16       0.995657        1.04848        1.02591       0.87874      -0.0215892  -0.0058936
  7741.95       0.979609        1.04023        1.01108       0.871703      -0.0241288   9.54681e-06
  7744.45       0.916249        1.02529       0.951579       0.860616      -0.0215577   0.00158427
  7746.97       0.871454        1.02351       0.910664       0.862721      -0.0161805   0.00165496
  7749.45       0.835331        1.02992       0.878371       0.872966      -0.0132813   0.00100349
  7751.94       0.805499        1.0396       0.852366       0.886469      -0.0111972   0.00107917
  7754.45       0.779322        1.04905       0.830076       0.899807      -0.00788331   0.00203361
  7756.95       0.765972        1.05755       0.820571       0.912145      -0.00100063   0.00259424
  7759.43       0.774344        1.06517       0.832769       0.923591       0.00502305   0.0017483
  7761.95       0.791077        1.07208       0.853383       0.934385       0.00773737   0.00134291
  7764.47       0.813325        1.0782       0.879518       0.944392       0.0117886   0.000699207
  7766.97       0.850232        1.08349       0.920276       0.953535       0.011246  -0.000116449
  7769.46       0.869488        1.08804       0.943381       0.961938       0.0112071  -2.14843e-05
  7771.99       0.906514        1.09192       0.984301       0.969706       0.0111381  -0.00120269
  7774.49       0.925468        1.09506        1.00711       0.976701       0.00516234  -0.00178642
  7777       0.932378        1.09753        1.01789       0.983043       0.00218814  -0.000653955
  7780.56       0.938758        1.09993        1.02977       0.990939       0.00119021  -0.000860405
  7784.15       0.94089        1.10108        1.03743       0.997625      -0.00396548  -0.000630581
  7787.69       0.910481        1.10105        1.01249        1.00306      -0.00330646   0.000690769
  7791.28       0.917305        1.09991        1.02484        1.00744       0.000961776   0.000259582
  7794.86       0.917376        1.09771        1.03043        1.01077      -0.00144551  -0.000637029
  7798.44       0.906964        1.09454        1.02553        1.01311      -0.00359553  -0.000270349
  7802.02       0.891657        1.09046        1.01575        1.01455      -0.00337932   2.89836e-05
  7805.61       0.882707        1.08551        1.01235        1.01514      -0.00338748   0.000104007
  7809.2       0.867304        1.07979        1.00248        1.01496      -0.00263161   0.000481008
  7812.81       0.863773        1.07334        1.0045        1.01408       7.33662e-05   7.57369e-06
  7816.38       0.867831        1.06633        1.01407        1.01257      -0.00257726  -0.0005118
  7819.99       0.845255        1.05866       0.997066        1.01047      -0.00360391   4.21283e-06
  7823.6       0.841796        1.0505       0.999175        1.00788      -0.00254682  -0.000113959
  7827.22       0.826844        1.0419       0.989802        1.00486      -0.00442772   5.35572e-05
  7830.81       0.809877        1.03301       0.978372        1.0015      -0.00216073   0.000733114
  7834.44       0.811254        1.02375       0.985338       0.997835       0.000861698  -5.25805e-05
  7838.06       0.81612        1.01429       0.995789       0.993956      -0.00254173  -0.00036971
  7841.69       0.792822        1.00466       0.978087       0.989926      -0.00181944   0.000732951
  7845.32       0.802911       0.994965       0.993774       0.985828       0.00277949   0.00126692