File: Dynamic XAS/Dynamic XAS Energy analyzed data/ESweep_0_5 Hz/Same Eo/Normalized Spectra/Ir0_5Hz_ReaddMean_VPhsCorrect_47_-77_mV_.csv.nor
# XDI/1.0 Athena/0.9.26
# Element.edge:                  K
# Element.symbol:                Co
# Column.1:                      energy eV
# Column.2:                      norm
# Column.3:                      nbkg
# Column.4:                      flat
# Column.5:                      fbkg
# Column.6:                      nder
# Column.7:                      nsec
# Athena.e0:                     7721.54
# Athena.eshift:                 0
# Athena.rbkg:                   1.0
# Athena.importance:             1
# Athena.standard:               None
# Athena.bkg_kweight:            3
# Athena.edge_step:              1.19237
# Athena.fixed_step:             no
# Athena.pre_edge_range:         -82.964 -19.904
# Athena.pre_edge_line:          -0.017779 + 0.00021696 * E
# Athena.normalization_range:    45 125.256
# Athena.post_edge_polynomial:   15.5784 - 0.00164844 * E + 0 * E^2 + 0 * E^3
# Athena.spline_range_energy:    0.000 125.180
# Athena.clamps:                 0 24
# Athena.spline_range_k:         0.000 5.732
# Athena.kweight:                2
# Athena.window:                 hanning
# Athena.phase_correction:       no
# Athena.k_range:                .4 5.35
# Athena.dk:                     .5
# Athena.r_range:                .4 5.1
# Athena.dr:                     .5
# Athena.window:                 hanning
# Athena.plot_multiplier:        1
# Athena.y_offset:               0.2
# ///
#------------------------
#   e         norm        nbkg        flat        fbkg        nder        nsec
  7600.07      -0.216216      -0.0162156  -0.216216      -0.216216       0.0127086  -0.00054524
  7610.64      -0.0818349   0.118165      -0.0818349  -0.0818349   0.00694323  -0.000405443
  7624.56      -0.0461829   0.153817      -0.0461829  -0.0461829   0.00277969  -0.000215385
  7637.2      -0.00800911   0.191991      -0.00800911  -0.00800911   0.00122281  -0.000125052
  7649.7      -0.0154378   0.184562      -0.0154378  -0.0154378  -0.000364493   0.000105425
  7662.2      -0.0171211   0.182879      -0.0171211  -0.0171211   0.00385834   2.36098e-05
  7674.73       0.0811518   0.281152       0.0811519   0.0811519   0.000226556  -0.000295652
  7687.33      -0.0114272   0.188573      -0.0114272  -0.0114272  -0.00357198   8.08218e-06
  7700.01      -0.00913717   0.190863      -0.00913717  -0.00913717   0.000430849   0.00100173
  7700.39      -0.00580165   0.194198      -0.00580165  -0.00580165   0.00950765   0.00557072
  7700.72      -0.00239624   0.197604      -0.00239625  -0.00239625   0.00438049  -0.0217728
  7701.07      -0.00280977   0.19719      -0.00280977  -0.00280977  -0.0053632  -0.00607096
  7701.43      -0.00623093   0.193769      -0.00623093  -0.00623093   3.97534e-05   0.0142658
  7701.8      -0.00278087   0.197219      -0.00278087  -0.00278087   0.00500804  -0.00434121
  7702.15      -0.00262014   0.19738      -0.00262014  -0.00262014  -0.00309026  -0.0125826
  7702.52      -0.00499659   0.195003      -0.00499659  -0.00499659  -0.00401366   0.00335197
  7702.88      -0.00552603   0.194474      -0.00552603  -0.00552603  -0.000663433   0.000165013
  7703.24      -0.00547891   0.194521      -0.00547891  -0.00547891  -0.00389369   0.00321472
  7703.6      -0.00833338   0.191667      -0.00833338  -0.00833338   0.00165438   0.0181318
  7703.96      -0.00428941   0.195711      -0.00428941  -0.00428941   0.00914306   0.00360694
  7704.32      -0.00170466   0.198295      -0.00170466  -0.00170466   0.00426941  -0.0154332
  7704.69      -0.00118981   0.19881      -0.00118981  -0.00118981  -0.00206147  -0.0112378
  7705.02      -0.00313738   0.196863      -0.00313738  -0.00313738  -0.00354084   0.00647629
  7705.38      -0.00364716   0.196353      -0.00364716  -0.00364716   0.00243308   0.0268599
  7705.75      -0.00136367   0.198636      -0.00136367  -0.00136367   0.01604   0.030141
  7706.11       0.00807808   0.208078       0.00807808   0.00807808   0.0244661   0.0191888
  7706.47       0.0163009   0.216301       0.0163009   0.0163009   0.0298943   0.0109844
  7706.83       0.0295721   0.229572       0.0295721   0.0295721   0.0323639  -0.00396207
  7707.2       0.0397647   0.239765       0.0397647   0.0397647   0.0270218  -0.0202925
  7707.56       0.0491899   0.24919       0.0491899   0.0491899   0.0176315  -0.0325664
  7707.91       0.0524417   0.252442       0.0524417   0.0524417   0.00360656  -0.0229241
  7708.28       0.0517975   0.251797       0.0517975   0.0517975   0.00105739  -0.00809442
  7708.65       0.0532147   0.253215       0.0532147   0.0532147  -0.00231047  -0.012631
  7708.98       0.0501755   0.250176       0.0501755   0.0501755  -0.00780957   0.00746502
  7709.29       0.0481853   0.248185       0.0481853   0.0481853   0.002497   0.0238279
  7709.6       0.0517087   0.251709       0.0517087   0.0517087   0.00682077  -0.0119453
  7709.9       0.0523664   0.252366       0.0523664   0.0523664  -0.00482548  -0.0325522
  7710.21       0.048741   0.248741       0.048741   0.048741  -0.0131989  -0.00412404
  7710.51       0.0443019   0.244302       0.044302   0.044302  -0.00734527   0.0235723
  7710.82       0.0442457   0.244246       0.0442457   0.0442457   0.00122738   0.0307348
  7711.11       0.045031   0.245031       0.045031   0.045031   0.0109112   0.00700927
  7711.42       0.050716   0.250716       0.050716   0.050716   0.00538388  -0.0244951
  7711.73       0.0483529   0.248353       0.0483529   0.0483529  -0.00420232  -0.00524355
  7712.03       0.04814   0.24814       0.04814   0.04814   0.00216959   0.00318006
  7712.33       0.049672   0.249672       0.049672   0.049672  -0.00226884   0.0076666
  7712.64       0.0467447   0.246745       0.0467447   0.0467447   0.00688455   0.0315986
  7712.95       0.0539404   0.25394       0.0539404   0.0539404   0.0173223   0.0272738
  7713.23       0.0569821   0.256982       0.0569821   0.0569821   0.0230033   0.051095
  7713.54       0.0673974   0.267397       0.0673974   0.0673974   0.0472128   0.0671914
  7713.85       0.0861597   0.28616       0.0861597   0.0861597   0.0645276   0.0489153
  7714.16       0.107598       0.307598       0.107598       0.107598       0.0776871   0.0168194
  7714.47       0.134093       0.334093       0.134093       0.134093       0.0749052  -0.0392703
  7714.78       0.15374       0.35374       0.15374       0.15374       0.0534966  -0.0608912
  7715.08       0.166565       0.366565       0.166565       0.166565       0.0379442  -0.0103052
  7715.39       0.176848       0.376848       0.176848       0.176848       0.0472207   0.018627
  7715.67       0.194567       0.394567       0.194567       0.194567       0.04899  -0.0437352
  7715.97       0.205556       0.405556       0.205556       0.205556       0.0215919  -0.0664614
  7716.14       0.20465       0.40465       0.20465       0.20465       0.0179525   0.0882995
  7716.26       0.210636       0.410636       0.210636       0.210636       0.0465806   0.147707
  7716.37       0.215364       0.415364       0.215364       0.215364       0.0519251   0.103715
  7716.5       0.223306       0.423306       0.223306       0.223306       0.071887   0.0965393
  7716.62       0.233551       0.433551       0.233551       0.233551       0.0763495  -0.0737865
  7716.73       0.241172       0.441172       0.241172       0.241172       0.054621  -0.201364
  7716.87       0.247043       0.447043       0.247043       0.247043       0.0266125  -0.0812234
  7716.99       0.247958       0.447958       0.247958       0.247958       0.033909   0.104265
  7717.1       0.254977       0.454977       0.254977       0.254977       0.0510104   0.0571398
  7717.23       0.260456       0.460456       0.260456       0.260456       0.0479082   0.180445
  7717.35       0.266906       0.466906       0.266906       0.266906       0.0959412   0.0734814
  7717.46       0.282426       0.482426       0.282426       0.282426       0.0647355  -0.18935
  7717.59       0.282572       0.482572       0.282572       0.282572       0.0501186   0.0760948
  7717.71       0.294856       0.494856       0.294856       0.294856       0.083607   0.166467
  7717.84       0.303474       0.503474       0.303474       0.303474       0.0917355   0.111544
  7717.96       0.317789       0.517789       0.317789       0.317789       0.111493       0.0956793
  7718.07       0.329341       0.529341       0.329341       0.329341       0.113933      -0.0852127
  7718.21       0.345817       0.545817       0.345817       0.345817       0.0905306  -0.201785
  7718.33       0.352335       0.552335       0.352335       0.352335       0.0626796   0.0715145
  7718.44       0.360547       0.560547       0.360547       0.360547       0.107336       0.197224
  7718.57       0.378633       0.578633       0.378633       0.378633       0.110999      -0.0361145
  7718.69       0.388518       0.588519       0.388519       0.388519       0.0982356  -0.0319561
  7718.81       0.401423       0.601423       0.401423       0.401423       0.103586       0.125002
  7718.94       0.41369       0.61369       0.41369       0.41369       0.128611       0.202595
  7719.06       0.433705       0.633705       0.433705       0.433705       0.154437      -0.0292455
  7719.17       0.449519       0.649519       0.449519       0.449519       0.121826      -0.105462
  7719.3       0.463309       0.663309       0.463309       0.463309       0.12881       0.129471
  7719.42       0.481979       0.681979       0.481979       0.481979       0.154453       0.0840399
  7719.53       0.499759       0.699759       0.499759       0.499759       0.148643      -0.0127145
  7719.67       0.518545       0.718545       0.518545       0.518545       0.151325      -0.0438215
  7719.79       0.538045       0.738045       0.538045       0.538045       0.137556       0.100866
  7719.9       0.550871       0.750871       0.550871       0.550871       0.175028       0.30863
  7720.03       0.581101       0.781102       0.581102       0.581102       0.213479       0.150815
  7720.15       0.604881       0.804881       0.604881       0.604881       0.213184      -0.103038
  7720.27       0.630773       0.830774       0.630773       0.630773       0.189471      -0.190536
  7720.4       0.650923       0.850923       0.650923       0.650923       0.166884      -0.149689
  7720.52       0.672328       0.872328       0.672328       0.672328       0.152199       0.029771
  7720.65       0.68882       0.88882       0.68882       0.68882       0.174297       0.218656
  7720.77       0.715902       0.915902       0.715902       0.715902       0.206863       0.187015
  7720.88       0.737019       0.937019       0.737019       0.737019       0.217872       0.0838496
  7721.01       0.769716       0.969716       0.769716       0.769716       0.227574      -0.198973
  7721.13       0.794823       0.994823       0.794823       0.794823       0.167333      -0.134325
  7721.25       0.808705        1.0087       0.808705       0.808705       0.196276       0.330767
  7721.38       0.843107        1.04311       0.843107       0.843107       0.248701       0.208552
  7721.5       0.871875        1.07187       0.871812       0.871812       0.249248      -0.149565
  7721.61       0.901182        2.23645       0.901294        2.03657       0.213853      -0.171001
  7721.74       0.924055        2.21942       0.924374        2.01974       0.207524       0.223408
  7721.86       0.953063        2.20432       0.953566        2.00482       0.269705      -0.0574259
  7721.97       0.986087        2.19011       0.986766        1.99079       0.194316      -0.566533
  7722.1        1.00009        2.17375        1.00097        1.97463       0.132604       0.0466666
  7722.23        1.0195        2.15854        1.02058        1.95961       0.206076       0.271535
  7722.36        1.05243        2.14223        1.05371        1.9435       0.201574      -0.218749
  7722.48        1.0705        2.12741        1.07197        1.92888       0.150732      -0.235927
  7722.59        1.08785        2.11357        1.0895        1.91521       0.146131      -0.175226
  7722.72        1.1063        2.0978        1.10816        1.89965       0.107802      -0.148387
  7722.85        1.11513        2.08325        1.11717        1.88529       0.108589       0.178585
  7722.96        1.13171        2.07001        1.13393        1.87223       0.149591       0.186213
  7723.05        1.14579        2.0591        1.14816        1.86146       0.146763      -0.129554
  7723.21        1.16914        2.04026        1.17176        1.84288       0.116555      -0.116774
  7723.41        1.18717        2.01812        1.19009        1.82104       0.105308       0.000645765
  7723.6        1.21021        1.99584        1.21344        1.79907       0.116806      -0.0470579
  7723.8        1.23319        1.9739        1.23673        1.77743       0.0867671  -0.161977
  7724        1.24465        1.95195        1.2485        1.7558       0.0525016  -0.174005
  7724.2        1.25409        1.93055        1.25824        1.73471       0.0175132  -0.134899
  7724.4        1.25159        1.90947        1.25606        1.71394      -0.000918619  -0.0151388
  7724.59        1.25372        1.88892        1.2585        1.6937       0.0115485  -0.025888
  7724.79        1.25613        1.86859        1.26121        1.67367      -0.0110926  -0.100939
  7725.01        1.24911        1.84634        1.25454        1.65177      -0.0304422  -0.0275712
  7725.72        1.2277        1.77639        1.23424        1.58294      -0.0368441  -0.00829326
  7726.51        1.19388        1.70427        1.20165        1.51204      -0.0428738   0.00131195
  7727.3        1.16        1.63587        1.16901        1.44488      -0.0347725   0.0064204
  7728.07        1.13967        1.5745        1.14988        1.38471      -0.0328644   0.00460449
  7728.83        1.10978        1.51725        1.12119        1.32866      -0.0277369   0.0140008
  7729.59        1.09732        1.46407        1.10991        1.27667      -0.0114852   0.014845
  7730.35        1.09229        1.41492        1.10608        1.22871      -0.00512795   0.00554189
  7731.15        1.08935        1.3675        1.10438        1.18253      -0.00287311   0.00325012
  7731.91        1.08782        1.32557        1.10404        1.1418      -6.75103e-05  -0.00372373
  7732.68        1.08924        1.28679        1.10667        1.10422      -0.00857787  -0.00568862
  7733.44        1.07468        1.25166        1.0933        1.07028      -0.00877678   0.00606581
  7734.21        1.07577        1.21925        1.0956        1.03908       0.000733155  -0.000457941
  7734.98        1.07581        1.19033        1.09683        1.01135      -0.00947972  -0.0102675
  7735.77        1.06097        1.16309        1.08324       0.985361      -0.0152945   0.00513931
  7736.54        1.0519        1.13986        1.07537       0.963326      -0.00144697   0.0065069
  7737.31        1.05875        1.11909        1.08342       0.94376      -0.00531287  -0.0121583
  7738.08        1.04373        1.10085        1.0696       0.926727      -0.0201586  -0.00815927
  7738.84        1.02781        1.08504        1.05488       0.912114      -0.0178373   0.00457235
  7739.62        1.01629        1.07134        1.04457       0.899622      -0.0131263   0.00172044
  7740.39        1.00754        1.05975        1.03703       0.889233      -0.015181  -0.00412202
  7741.16       0.992838        1.0501        1.02353       0.880797      -0.0194948  -0.00548346
  7741.95       0.977054        1.04212        1.00899       0.874054      -0.0237571  -0.000588966
  7744.45       0.914653        1.02774       0.950498       0.863589      -0.0214331   0.00152125
  7746.97       0.869524        1.02617       0.909306       0.865953      -0.016125   0.00180251
  7749.45       0.834012        1.03254       0.87768       0.876206      -0.0124187   0.001164
  7751.94       0.807852        1.04204       0.855404       0.889592      -0.0103446   0.00102714
  7754.45       0.782268        1.05128       0.833762       0.902772      -0.00728101   0.00198378
  7756.95       0.771345        1.05954       0.826741       0.914932      -0.000397934   0.00252787
  7759.43       0.780289        1.0669       0.839565       0.926181       0.00529513   0.00159423
  7761.95       0.79781        1.07354       0.861025       0.936756       0.00757003   0.00120851
  7764.47       0.818426        1.07937       0.885585       0.946529       0.0113836   0.000580781
  7766.97       0.854933        1.08436       0.925998       0.95543       0.0104844  -0.000207106
  7769.46       0.870785        1.08861       0.945757       0.96358       0.0103493   1.52746e-05
  7771.99       0.906908        1.09216       0.985829       0.971086       0.0105611  -0.00109401
  7774.49       0.923866        1.09498        1.0067       0.977817       0.00485083  -0.00171062
  7777       0.93121        1.09713        1.01797       0.983894       0.00199089  -0.000667351
  7780.56       0.935958        1.09908        1.02829       0.991417       0.000797335  -0.000847426
  7784.15       0.936913        1.09979        1.03486       0.997739      -0.0040699  -0.000531397
  7787.69       0.906936        1.09934        1.01043        1.00283      -0.00299206   0.000706442
  7791.28       0.91557        1.09779        1.02468        1.0069       0.000969151   0.000175096
  7794.86       0.913884        1.09524        1.02859        1.00994      -0.00173679  -0.00063838
  7798.44       0.903145        1.09175        1.02344        1.01205      -0.00359782  -0.000217951
  7802.02       0.888148        1.0874        1.01405        1.0133      -0.0032958   6.46643e-05
  7805.61       0.879488        1.08224        1.01102        1.01377      -0.00313366   9.51318e-05
  7809.2       0.86562        1.07639        1.00277        1.01353      -0.0026119   0.000413154
  7812.81       0.860695        1.06988        1.00348        1.01267      -0.000161018  -1.99754e-05
  7816.38       0.864465        1.06288        1.01284        1.01126      -0.00275526  -0.000439763
  7819.99       0.840899        1.05534       0.994925        1.00936      -0.00332071   9.41332e-05
  7823.6       0.840476        1.04739        1.00015        1.00707      -0.00207524  -0.000152305
  7827.22       0.825897        1.03912       0.991232        1.00445      -0.00442173  -1.50489e-05
  7830.81       0.8086        1.03067       0.979553        1.00162      -0.00218373   0.00074587
  7834.44       0.810141        1.02199       0.986764       0.99861       0.000959723  -8.86853e-05
  7838.06       0.815554        1.01323       0.997843       0.99552      -0.00282634  -0.00039797
  7841.69       0.789645        1.00446       0.977613       0.992427      -0.00192635   0.000841757
  7845.32       0.801569       0.99577       0.995216       0.989417       0.00328481   0.00143558