File: Dynamic XAS/Dynamic XAS Energy analyzed data/ESweep_0_5 Hz/Same Eo/Normalized Spectra/Ir0_5Hz_ReaddMean_VPhsCorrect_8_219_mV_.csv.nor
# XDI/1.0 Athena/0.9.26
# Element.edge:                  K
# Element.symbol:                Co
# Column.1:                      energy eV
# Column.2:                      norm
# Column.3:                      nbkg
# Column.4:                      flat
# Column.5:                      fbkg
# Column.6:                      nder
# Column.7:                      nsec
# Athena.e0:                     7721.54
# Athena.eshift:                 0
# Athena.rbkg:                   1.0
# Athena.importance:             1
# Athena.standard:               None
# Athena.bkg_kweight:            3
# Athena.edge_step:              1.1926
# Athena.fixed_step:             no
# Athena.pre_edge_range:         -82.964 -19.904
# Athena.pre_edge_line:          0.218679 + 0.000186215 * E
# Athena.normalization_range:    45 125.256
# Athena.post_edge_polynomial:   15.5038 - 0.00163888 * E + 0 * E^2 + 0 * E^3
# Athena.spline_range_energy:    0.000 125.180
# Athena.clamps:                 0 24
# Athena.spline_range_k:         0.000 5.732
# Athena.kweight:                2
# Athena.window:                 hanning
# Athena.phase_correction:       no
# Athena.k_range:                .4 5.35
# Athena.dk:                     .5
# Athena.r_range:                .4 5.1
# Athena.dr:                     .5
# Athena.window:                 hanning
# Athena.plot_multiplier:        1
# Athena.y_offset:               0.2
# ///
#------------------------
#   e         norm        nbkg        flat        fbkg        nder        nsec
  7600.07      -0.215903      -0.0159028  -0.215903      -0.215903       0.0122385  -0.000510296
  7610.64      -0.0864927   0.113507      -0.0864927  -0.0864927   0.00684265  -0.000377735
  7624.56      -0.0483332   0.151667      -0.0483332  -0.0483332   0.00298816  -0.000207333
  7637.2      -0.00713018   0.19287      -0.00713018  -0.00713018   0.0013361  -0.000134589
  7649.7      -0.0147395   0.185261      -0.0147395  -0.0147395  -0.000395811   9.33171e-05
  7662.2      -0.0170251   0.182975      -0.0170251  -0.0170251   0.00366894   2.59703e-05
  7674.73       0.0771087   0.277109       0.0771087   0.0771087   0.00025433  -0.000281455
  7687.33      -0.0106332   0.189367      -0.0106332  -0.0106332  -0.00340459   5.75735e-06
  7700.01      -0.00894912   0.191051      -0.00894912  -0.00894912   0.000399858   0.00101112
  7700.39      -0.0054123   0.194588      -0.0054123  -0.0054123   0.00979767   0.00430359
  7700.72      -0.00200258   0.197997      -0.00200258  -0.00200258   0.0034511  -0.0238476
  7701.07      -0.0030552   0.196945      -0.0030552  -0.0030552  -0.00649026  -0.00187025
  7701.43      -0.00664311   0.193357      -0.00664311  -0.00664311   0.00211387   0.0177033
  7701.8      -0.00151841   0.198482      -0.00151841  -0.00151841   0.00638001  -0.00891938
  7702.15      -0.00204313   0.197957      -0.00204313  -0.00204313  -0.004317  -0.0186498
  7702.52      -0.0046137   0.195386      -0.0046137  -0.0046137  -0.00699189   0.00151615
  7702.88      -0.00710526   0.192895      -0.00710526  -0.00710526  -0.00321931   0.00992502
  7703.24      -0.00695414   0.193046      -0.00695414  -0.00695414   0.000223603   0.00871078
  7703.6      -0.00694404   0.193056      -0.00694404  -0.00694404   0.00306117   0.0104312
  7703.96      -0.00475316   0.195247      -0.00475316  -0.00475316   0.00772362   0.00454673
  7704.32      -0.00134441   0.198656      -0.00134441  -0.00134441   0.00635755  -0.0136233
  7704.69      -0.000137578   0.199862      -0.000137578  -0.000137578  -0.00216692  -0.0183154
  7705.02      -0.00285042   0.19715      -0.00285042  -0.00285042  -0.00637162   0.00353856
  7705.38      -0.00455948   0.195441      -0.00455949  -0.00455948   0.00028884   0.0338139
  7705.75      -0.00263986   0.19736      -0.00263986  -0.00263986   0.0182787   0.0332104
  7706.11       0.00880226   0.208802       0.00880226   0.00880226   0.0245656   0.012086
  7706.47       0.0150965   0.215097       0.0150965   0.0150965   0.0270048   0.0106883
  7706.83       0.0282187   0.228219       0.0282187   0.0282187   0.0322505   0.00118497
  7707.2       0.0384781   0.238478       0.0384781   0.0384781   0.0278639  -0.0199675
  7707.56       0.0484479   0.248448       0.0484479   0.0484479   0.0177541  -0.0325269
  7707.91       0.0512433   0.251243       0.0512433   0.0512433   0.0044771  -0.0197517
  7708.28       0.0516849   0.251685       0.0516849   0.0516849   0.00347365  -0.00680362
  7708.65       0.0537826   0.253783       0.0537826   0.0537826  -0.000496345  -0.0152197
  7708.98       0.0513365   0.251336       0.0513365   0.0513365  -0.00721059   0.00545619
  7709.29       0.0491389   0.249139       0.0491389   0.0491389   0.00301744   0.0223195
  7709.6       0.0531892   0.253189       0.0531892   0.0531892   0.00649358  -0.0151121
  7709.9       0.0531195   0.25312       0.0531195   0.0531195  -0.0062463  -0.0318977
  7710.21       0.0493477   0.249348       0.0493477   0.0493477  -0.0131235  -0.00296148
  7710.51       0.0451011   0.245101       0.0451011   0.0451011  -0.00805577   0.0176891
  7710.82       0.0444176   0.244418       0.0444176   0.0444176  -0.00229775   0.0275664
  7711.11       0.0437362   0.243736       0.0437362   0.0437362   0.00831868   0.0133781
  7711.42       0.0493505   0.249351       0.0493505   0.0493505   0.00563545  -0.0207424
  7711.73       0.0472133   0.247213       0.0472133   0.0472133  -0.00447941  -0.0146794
  7712.03       0.0466047   0.246605       0.0466047   0.0466047  -0.00336299  -0.0141221
  7712.33       0.0451686   0.245169       0.0451686   0.0451686  -0.0130656   0.0112781
  7712.64       0.0385693   0.238569       0.0385693   0.0385693   0.00357305   0.0565929
  7712.95       0.0473839   0.247384       0.0473839   0.0473839   0.022022   0.0393692
  7713.23       0.0515843   0.251584       0.0515843   0.0515843   0.0268403   0.0356539
  7713.54       0.0630854   0.263085       0.0630854   0.0630854   0.0428795   0.0548228
  7713.85       0.0780838   0.278084       0.0780838   0.0780838   0.0607207   0.0500727
  7714.16       0.100914       0.300914       0.100914       0.100914       0.0740748   0.00473857
  7714.47       0.123788       0.323788       0.123788       0.123788       0.0636444  -0.0414034
  7714.78       0.140119       0.340119       0.140119       0.140119       0.0485703  -0.0390436
  7715.08       0.15327       0.35327       0.15327       0.15327       0.039945  -0.00261681
  7715.39       0.164446       0.364446       0.164446       0.164446       0.0469767   0.00208907
  7715.67       0.181127       0.381127       0.181127       0.181127       0.0411838  -0.0320852
  7715.97       0.18858       0.38858       0.18858       0.18858       0.0281747  -0.0258227
  7716.14       0.194285       0.394285       0.194285       0.194285       0.0291246  -0.0263444
  7716.26       0.196822       0.396822       0.196822       0.196822       0.0207193   0.0500202
  7716.37       0.19905       0.39905       0.19905       0.19905       0.0406293   0.201083
  7716.5       0.206735       0.406735       0.206735       0.206735       0.0697835   0.0873709
  7716.62       0.216706       0.416706       0.216706       0.216706       0.0627341  -0.0465417
  7716.73       0.221415       0.421415       0.221415       0.221415       0.0588928  -0.0128743
  7716.87       0.231252       0.431252       0.231252       0.231252       0.0595541  -0.0671184
  7716.99       0.236602       0.436602       0.236602       0.236602       0.0417776  -0.0931374
  7717.1       0.241028       0.441028       0.241028       0.241028       0.03776   0.00714945
  7717.23       0.245853       0.445853       0.245853       0.245853       0.0435292   0.151803
  7717.35       0.251867       0.451867       0.251867       0.251867       0.075559   0.104437
  7717.46       0.263156       0.463156       0.263156       0.263156       0.0674454  -0.171096
  7717.59       0.268189       0.468189       0.268189       0.268189       0.0341537   0.0761771
  7717.71       0.271626       0.471626       0.271626       0.271626       0.0863373   0.328164
  7717.84       0.289773       0.489773       0.289773       0.289773       0.116195      -0.0295918
  7717.96       0.300675       0.500675       0.300675       0.300675       0.0789394  -0.135402
  7718.07       0.308087       0.508087       0.308087       0.308087       0.0847815   0.117955
  7718.21       0.321531       0.521531       0.321531       0.321531       0.107956       0.0172049
  7718.33       0.335508       0.535508       0.335508       0.335508       0.0891516  -0.211833
  7718.44       0.342481       0.542481       0.342481       0.342481       0.0581756  -0.0603869
  7718.57       0.349761       0.549761       0.349761       0.349761       0.0743568   0.19242
  7718.69       0.361219       0.561219       0.361219       0.361219       0.106665       0.218734
  7718.81       0.374507       0.574507       0.374507       0.374507       0.125103       0.0318231
  7718.94       0.391619       0.591619       0.391619       0.391619       0.114398       0.0738367
  7719.06       0.403221       0.603221       0.403221       0.403221       0.143636       0.0634863
  7719.17       0.424943       0.624943       0.424943       0.424943       0.129127      -0.126833
  7719.3       0.434599       0.634599       0.434599       0.434599       0.112816       0.214452
  7719.42       0.453373       0.653373       0.453373       0.453373       0.183169       0.172591
  7719.53       0.477827       0.677827       0.477827       0.477827       0.153547      -0.235362
  7719.67       0.491145       0.691145       0.491145       0.491145       0.12527       0.0585864
  7719.79       0.50952       0.70952       0.50952       0.50952       0.16837       0.144879
  7719.9       0.530712       0.730712       0.530712       0.530712       0.159317       0.0360873
  7720.03       0.548712       0.748712       0.548712       0.548712       0.177247       0.261014
  7720.15       0.575556       0.775556       0.575556       0.575556       0.225353       0.0789208
  7720.27       0.60122       0.80122       0.60122       0.60122       0.195636      -0.279699
  7720.4       0.623095       0.823095       0.623095       0.623095       0.157387      -0.106061
  7720.52       0.640409       0.840409       0.640409       0.640409       0.169226       0.0617246
  7720.65       0.665232       0.865232       0.665232       0.665232       0.172756       0.22781
  7720.77       0.683598       0.883598       0.683598       0.683598       0.226179       0.275541
  7720.88       0.717932       0.917932       0.717932       0.717932       0.236957      -0.165928
  7721.01       0.742127       0.942127       0.742127       0.742127       0.185195      -0.15171
  7721.13       0.764971       0.964971       0.764971       0.764971       0.198423       0.0237969
  7721.25       0.788359       0.988359       0.788359       0.788359       0.190739       0.0571129
  7721.38       0.811893        1.01189       0.811893       0.811893       0.212473       0.283073
  7721.5       0.842327        1.04233       0.842266       0.842266       0.26264       0.207156
  7721.61       0.873088        2.26653       0.873199        2.06664       0.26074      -0.0872967
  7721.74       0.905948        2.24907       0.90626        2.04939       0.24134      -0.0163818
  7721.86       0.933423        2.23361       0.933916        2.0341       0.256645      -0.138781
  7721.97       0.964976        2.21904       0.96564        2.01971       0.20942      -0.403863
  7722.1       0.984103        2.20228       0.984966        2.00314       0.15891      -0.0134151
  7722.23        1.00502        2.18669        1.00607        1.98774       0.206039       0.246233
  7722.36        1.03644        2.16998        1.03769        1.97123       0.221453      -0.0612768
  7722.48        1.06105        2.15479        1.06249        1.95623       0.190536      -0.277807
  7722.59        1.08121        2.14061        1.08282        1.94222       0.156168      -0.337424
  7722.72        1.09931        2.12445        1.10112        1.92626       0.107868      -0.143541
  7722.85        1.1085        2.10954        1.1105        1.91154       0.119853       0.298451
  7722.96        1.12736        2.09597        1.12953        1.89814       0.177705       0.22248
  7723.05        1.14493        2.08479        1.14725        1.8871       0.165461      -0.197369
  7723.21        1.16955        2.06549        1.17211        1.86805       0.127376      -0.125969
  7723.41        1.19015        2.0428        1.19301        1.84566       0.120742       0.00104683
  7723.6        1.21664        2.01997        1.21979        1.82313       0.127784      -0.0425647
  7723.8        1.2405        1.99748        1.24396        1.80094       0.103972      -0.1613
  7724        1.25791        1.97499        1.26168        1.77875       0.0637481  -0.210357
  7724.2        1.26587        1.95306        1.26994        1.75712       0.0202495  -0.143191
  7724.4        1.26593        1.93146        1.2703        1.73583       0.00704462  -0.0067738
  7724.59        1.26865        1.9104        1.27332        1.71507       0.0175806  -0.0267366
  7724.79        1.27284        1.88956        1.27781        1.69453      -0.00346285  -0.121168
  7725.01        1.26721        1.86676        1.27251        1.67207      -0.0328253  -0.0409122
  7725.72        1.24218        1.79507        1.24859        1.60147      -0.0416748  -0.00988844
  7726.51        1.20473        1.72115        1.21234        1.52875      -0.047648   0.0014175
  7727.3        1.16695        1.65104        1.17577        1.45986      -0.0394366   0.00658252
  7728.07        1.14325        1.58813        1.15324        1.39812      -0.0373859   0.00642469
  7728.83        1.10982        1.52945        1.12098        1.3406      -0.0296197   0.0185875
  7729.59        1.09802        1.47493        1.11035        1.28725      -0.0090028   0.0182645
  7730.35        1.09611        1.42453        1.1096        1.23802      -0.00180288   0.00503434
  7731.15        1.09522        1.37591        1.10992        1.19061      -0.00117943   0.00175517
  7731.91        1.09427        1.33292        1.11014        1.14879       0.000929911  -0.00412278
  7732.68        1.09665        1.29315        1.11369        1.11019      -0.00749553  -0.00587663
  7733.44        1.0828        1.25712        1.10101        1.07533      -0.00806721   0.00388531
  7734.21        1.08426        1.22387        1.10366        1.04326      -0.00153158  -0.0032339
  7734.98        1.08045        1.1942        1.10101        1.01476      -0.0130312  -0.00969482
  7735.77        1.06392        1.16625        1.08571       0.988031      -0.0166652   0.00733114
  7736.54        1.0544        1.14241        1.07735       0.965359      -0.00157267   0.00760023
  7737.31        1.06151        1.12108        1.08564       0.945216      -0.00500643  -0.0123835
  7738.08        1.04669        1.10236        1.072       0.927668      -0.0206309  -0.00750617
  7738.84        1.02984        1.08612        1.05632       0.9126      -0.0165284   0.00714348
  7739.62        1.02127        1.07204        1.04894       0.899704      -0.00964425   0.000957114
  7740.39        1.01495        1.06012        1.04379       0.888965      -0.0150506  -0.00855931
  7741.16       0.998021        1.0502        1.02805       0.880226      -0.0228684  -0.00616613
  7741.95       0.979184        1.04198        1.01042       0.873221      -0.0246945   0.000407604
  7744.45       0.916752        1.02714       0.951815       0.862202      -0.021527   0.0017738
  7746.97       0.871183        1.02542       0.910098       0.864339      -0.0157953   0.00176901
  7749.45       0.837759        1.03187       0.880476       0.874585      -0.0126802   0.000965637
  7751.94       0.808213        1.04155       0.854728       0.888067      -0.0109999   0.000950851
  7754.45       0.782737        1.05099       0.833109       0.901365      -0.007924   0.00198465
  7756.95       0.768482        1.05946       0.82267       0.913647      -0.00104892   0.00262669
  7759.43       0.777519        1.06704       0.835504       0.925023       0.00514379   0.00178972
  7761.95       0.794191        1.0739       0.856028       0.935732       0.0078961   0.00119035
  7764.47       0.8173        1.07995       0.882994       0.945644       0.0111408   0.000592734
  7766.97       0.850096        1.08517       0.919612       0.954683       0.0108704   7.52079e-05
  7769.46       0.871587        1.08964       0.944924       0.962974       0.0115164  -3.32756e-05
  7771.99       0.907931        1.09342       0.985132       0.970622       0.0107033  -0.001287
  7774.49       0.925381        1.09646        1.00641       0.977493       0.0050479  -0.00167436
  7777       0.933221        1.09884        1.01809       0.983708       0.00231481  -0.000651921
  7780.56       0.939442        1.1011        1.02977       0.991421       0.00108814  -0.000870746
  7784.15       0.941003        1.10211        1.03682       0.997925      -0.00391277  -0.000600966
  7787.69       0.91154        1.10195        1.01278        1.00318      -0.00319735   0.00063854
  7791.28       0.918196        1.10068        1.02493        1.00741       0.000641939   0.000246592
  7794.86       0.916142        1.09837        1.02835        1.01058      -0.00142953  -0.000547612
  7798.44       0.90797        1.09512        1.02565        1.0128      -0.00327568  -0.000273557
  7802.02       0.892711        1.09098        1.01587        1.01413      -0.00338629  -1.71881e-05
  7805.61       0.883663        1.08599        1.01233        1.01466      -0.00339905   0.000120172
  7809.2       0.868275        1.08028        1.00243        1.01444      -0.00252237   0.000480687
  7812.81       0.865514        1.07388        1.00519        1.01356       5.9489e-05  -2.14065e-05
  7816.38       0.868702        1.06695        1.01384        1.01209      -0.00267601  -0.000505525
  7819.99       0.846287        1.05943       0.996956        1.0101      -0.00357271   3.84093e-05
  7823.6       0.842893        1.05147       0.999088        1.00766      -0.00239854  -0.000116189
  7827.22       0.828948        1.04312       0.99068        1.00485      -0.00441264   2.09084e-05
  7830.81       0.811082        1.03455       0.978309        1.00178      -0.00224781   0.000735237
  7834.44       0.81273        1.02568       0.985503       0.998457       0.000892094  -6.62871e-05
  7838.06       0.817546        1.01669       0.995862       0.995002      -0.00272813  -0.000356409
  7841.69       0.792946        1.00761       0.976817       0.991478      -0.00169258   0.000842965
  7845.32       0.805258       0.998544       0.994684       0.987971       0.00339179   0.00140066