File: Dynamic XAS/Dynamic XAS Energy analyzed data/ESweep_0_5 Hz/Same Eo/Normalized Spectra/Ir0_5Hz_ReaddMean_VPhsCorrect_14_242_mV_.csv.nor
# XDI/1.0 Athena/0.9.26
# Element.edge:                  K
# Element.symbol:                Co
# Column.1:                      energy eV
# Column.2:                      norm
# Column.3:                      nbkg
# Column.4:                      flat
# Column.5:                      fbkg
# Column.6:                      nder
# Column.7:                      nsec
# Athena.e0:                     7721.54
# Athena.eshift:                 0
# Athena.rbkg:                   1.0
# Athena.importance:             1
# Athena.standard:               None
# Athena.bkg_kweight:            3
# Athena.edge_step:              1.19612
# Athena.fixed_step:             no
# Athena.pre_edge_range:         -82.964 -19.904
# Athena.pre_edge_line:          0.267474 + 0.000179807 * E
# Athena.normalization_range:    45 125.256
# Athena.post_edge_polynomial:   15.7927 - 0.00167593 * E + 0 * E^2 + 0 * E^3
# Athena.spline_range_energy:    0.000 125.180
# Athena.clamps:                 0 24
# Athena.spline_range_k:         0.000 5.732
# Athena.kweight:                2
# Athena.window:                 hanning
# Athena.phase_correction:       no
# Athena.k_range:                .4 5.35
# Athena.dk:                     .5
# Athena.r_range:                .4 5.1
# Athena.dr:                     .5
# Athena.window:                 hanning
# Athena.plot_multiplier:        1
# Athena.y_offset:               0.2
# ///
#------------------------
#   e         norm        nbkg        flat        fbkg        nder        nsec
  7600.07      -0.214367      -0.0143666  -0.214367      -0.214367       0.0119903  -0.000490976
  7610.64      -0.0875813   0.112419      -0.0875813  -0.0875813   0.00679871  -0.000366913
  7624.56      -0.0478729   0.152127      -0.0478729  -0.0478729   0.00300497  -0.000206
  7637.2      -0.00777232   0.192228      -0.00777232  -0.00777232   0.00132755  -0.000131513
  7649.7      -0.0144943   0.185506      -0.0144943  -0.0144943  -0.000301652   9.07149e-05
  7662.2      -0.0153133   0.184687      -0.0153133  -0.0153133   0.00359533   1.98972e-05
  7674.73       0.0755112   0.275511       0.0755112   0.0755112   0.000196454  -0.000274258
  7687.33      -0.010376   0.189624      -0.010376  -0.010376  -0.00329732   5.95755e-06
  7700.01      -0.0078351   0.192165      -0.0078351  -0.0078351   0.000347043   0.000798
  7700.39      -0.00584469   0.194155      -0.00584469  -0.00584469   0.00712217   0.00468149
  7700.72      -0.00278548   0.197215      -0.00278548  -0.00278548   0.00366622  -0.0176961
  7701.07      -0.00334066   0.196659      -0.00334066  -0.00334066  -0.00496429  -0.00142156
  7701.43      -0.00633495   0.193665      -0.00633495  -0.00633495   0.00264981   0.0145384
  7701.8      -0.00141425   0.198586      -0.00141425  -0.00141425   0.00560515  -0.00971882
  7702.15      -0.00229364   0.197706      -0.00229364  -0.00229364  -0.00435747  -0.0175003
  7702.52      -0.00453856   0.195461      -0.00453856  -0.00453856  -0.00694259   0.00309065
  7702.88      -0.00732007   0.19268      -0.00732007  -0.00732007  -0.00211983   0.0104092
  7703.24      -0.00607968   0.19392      -0.00607968  -0.00607968   0.000624871   0.0058584
  7703.6      -0.00686954   0.19313      -0.00686954  -0.00686954   0.00210407   0.00976208
  7703.96      -0.00456685   0.195433      -0.00456685  -0.00456685   0.0076438   0.00498835
  7704.32      -0.00132778   0.198672      -0.00132778  -0.00132778   0.00572062  -0.013038
  7704.69      -0.000413677   0.199586      -0.000413677  -0.000413677  -0.00182175  -0.0165413
  7705.02      -0.0025939   0.197406      -0.0025939  -0.0025939  -0.0057756   0.00177625
  7705.38      -0.00442194   0.195578      -0.00442194  -0.00442194  -0.000589034   0.0321099
  7705.75      -0.00302331   0.196977      -0.00302331  -0.00302331   0.0176325   0.0352595
  7706.11       0.00846742   0.208467       0.00846741   0.00846741   0.0251857   0.0147265
  7706.47       0.0151607   0.215161       0.0151607   0.0151607   0.028265   0.00868464
  7706.83       0.02879   0.22879       0.02879   0.02879   0.0314299  -0.0039609
  7707.2       0.0379474   0.237947       0.0379474   0.0379474   0.0253934  -0.0189406
  7707.56       0.0472256   0.247226       0.0472256   0.0472256   0.0176791  -0.0277577
  7707.91       0.0506587   0.250659       0.0506587   0.0506587   0.00543562  -0.0189655
  7708.28       0.0511555   0.251156       0.0511555   0.0511555   0.00396706  -0.0070753
  7708.65       0.0535586   0.253559       0.0535586   0.0535586   0.000263573  -0.0146911
  7708.98       0.0513405   0.251341       0.0513405   0.0513405  -0.00634611   0.00505733
  7709.29       0.0494717   0.249472       0.0494717   0.0494717   0.0035205   0.0212753
  7709.6       0.0535021   0.253502       0.0535021   0.0535021   0.00671689  -0.0168291
  7709.9       0.0535892   0.253589       0.0535892   0.0535892  -0.00679575  -0.0346307
  7710.21       0.0493228   0.249323       0.0493227   0.0493227  -0.014581  -0.00147012
  7710.51       0.0446802   0.24468       0.0446802   0.0446802  -0.00769399   0.0186311
  7710.82       0.044614   0.244614       0.044614   0.044614  -0.0031788   0.022742
  7711.11       0.042792   0.242792       0.042792   0.042792   0.00581473   0.0110826
  7711.42       0.0480622   0.248062       0.0480622   0.0480622   0.00339316  -0.0179537
  7711.73       0.0448856   0.244886       0.0448856   0.0448856  -0.00526271  -0.0115971
  7712.03       0.0448361   0.244836       0.0448361   0.0448361  -0.00371588  -0.0101951
  7712.33       0.0426263   0.242626       0.0426263   0.0426263  -0.0114613   0.0130996
  7712.64       0.0377874   0.237787       0.0377874   0.0377874   0.00434035   0.0447495
  7712.95       0.0453173   0.245317       0.0453173   0.0453173   0.0162834   0.0313171
  7713.23       0.0474109   0.247411       0.0474109   0.0474109   0.0228487   0.0442894
  7713.54       0.0586838   0.258684       0.0586838   0.0586838   0.0421926   0.0601404
  7713.85       0.0734859   0.273486       0.0734859   0.0734859   0.0600155   0.0488736
  7714.16       0.0960735   0.296073       0.0960735   0.0960735   0.0726409   0.0132833
  7714.47       0.118305       0.318305       0.118305       0.118305       0.0682113  -0.0338823
  7714.78       0.138092       0.338092       0.138092       0.138092       0.0517694  -0.0584035
  7715.08       0.149729       0.349729       0.149729       0.149729       0.0327603  -0.0175924
  7715.39       0.158043       0.358043       0.158043       0.158043       0.0410557   0.0241865
  7715.67       0.174075       0.374075       0.174075       0.174075       0.0471029  -0.0157533
  7715.97       0.185645       0.385645       0.185645       0.185645       0.0318242  -0.0772563
  7716.14       0.188937       0.388937       0.188937       0.188937       0.0110242  -0.00974181
  7716.26       0.188765       0.388765       0.188765       0.188765       0.0290673   0.211185
  7716.37       0.195623       0.395623       0.195623       0.195623       0.0595968   0.106171
  7716.5       0.203306       0.403306       0.203306       0.203306       0.054973  -0.00151266
  7716.62       0.209531       0.409531       0.209531       0.209531       0.0592141  -0.0194659
  7716.73       0.217163       0.417162       0.217163       0.217163       0.050418  -0.0608898
  7716.87       0.221984       0.421984       0.221984       0.221984       0.0441743  -0.0267452
  7716.99       0.228427       0.428427       0.228427       0.228427       0.0435979  -0.0310471
  7717.1       0.232186       0.432186       0.232186       0.232186       0.0369093   0.0380675
  7717.23       0.23747       0.43747       0.23747       0.23747       0.0529245   0.201102
  7717.35       0.245364       0.445364       0.245364       0.245364       0.0869837  -0.0351969
  7717.46       0.257389       0.457389       0.257389       0.257389       0.0448644  -0.208616
  7717.59       0.256222       0.456222       0.256222       0.256222       0.0364987   0.200375
  7717.71       0.266441       0.466441       0.266441       0.266441       0.0945573   0.188212
  7717.84       0.279861       0.479861       0.279861       0.279861       0.0835516  -0.112347
  7717.96       0.287329       0.487329       0.287329       0.287329       0.0664706   0.124246
  7718.07       0.295282       0.495282       0.295282       0.295282       0.112377       0.175267
  7718.21       0.314973       0.514973       0.314973       0.314973       0.109586      -0.209146
  7718.33       0.323117       0.523117       0.323117       0.323117       0.0592537  -0.13545
  7718.44       0.328898       0.528898       0.328898       0.328898       0.0777555   0.179912
  7718.57       0.342167       0.542167       0.342167       0.342167       0.103332       0.0259267
  7718.69       0.354938       0.554938       0.354938       0.354938       0.084289  -0.0554311
  7718.81       0.361722       0.561722       0.361722       0.361722       0.0904721   0.213362
  7718.94       0.376922       0.576922       0.376922       0.376922       0.136136       0.296927
  7719.06       0.395892       0.595892       0.395892       0.395892       0.165001      -0.039099
  7719.17       0.415202       0.615202       0.415202       0.415202       0.127065      -0.2953
  7719.3       0.426769       0.626769       0.426769       0.426769       0.0932429   0.0888818
  7719.42       0.4387       0.6387       0.4387       0.4387       0.149463       0.235062
  7719.53       0.462042       0.662042       0.462042       0.462042       0.148717      -0.104766
  7719.67       0.475284       0.675284       0.475284       0.475284       0.123691       0.0738697
  7719.79       0.493336       0.693336       0.493336       0.493336       0.167407       0.298695
  7719.9       0.514625       0.714625       0.514625       0.514625       0.193884       0.0489963
  7720.03       0.541031       0.741031       0.541031       0.541031       0.17946       0.0871778
  7720.15       0.560028       0.760028       0.560028       0.560028       0.21594       0.0530892
  7720.27       0.591346       0.791346       0.591346       0.591346       0.191829      -0.346886
  7720.4       0.606642       0.806642       0.606642       0.606642       0.131647      -0.105782
  7720.52       0.624126       0.824126       0.624126       0.624126       0.16549       0.21883
  7720.65       0.647849       0.847849       0.647849       0.647849       0.186136       0.28635
  7720.77       0.670659       0.870659       0.670659       0.670659       0.237077       0.178567
  7720.88       0.703088       0.903088       0.703088       0.703088       0.227742      -0.1941
  7721.01       0.726912       0.926912       0.726912       0.726912       0.189134      -0.0925188
  7721.13       0.751128       0.951128       0.751128       0.751128       0.204242       0.097743
  7721.25       0.7745       0.9745       0.7745       0.7745       0.211908       0.109029
  7721.38       0.803258        1.00326       0.803258       0.803258       0.231063       0.231683
  7721.5       0.83319        1.03319       0.833128       0.833128       0.270756       0.0549849
  7721.61       0.866344        2.26829       0.866456        2.0684       0.243874      -0.168083
  7721.74       0.892695        2.2508       0.893012        2.05112       0.229744       0.0877005
  7721.86       0.92378        2.2353       0.924279        2.0358       0.2658      -0.0712189
  7721.97       0.953829        2.2207       0.954503        2.02138       0.213363      -0.410822
  7722.1       0.975414        2.20391       0.976289        2.00478       0.166381       0.0199665
  7722.23       0.995757        2.18829       0.996821        1.98935       0.218395       0.256545
  7722.36        1.03089        2.17154        1.03216        1.97281       0.231543      -0.14112
  7722.48        1.05434        2.15633        1.05579        1.95778       0.182691      -0.331856
  7722.59        1.07382        2.14211        1.07545        1.94375       0.153557      -0.251434
  7722.72        1.09196        2.12592        1.0938        1.92776       0.12109      -0.0637357
  7722.85        1.10445        2.11098        1.10648        1.91301       0.137432       0.22482
  7722.96        1.12412        2.09739        1.12632        1.89959       0.173698       0.185453
  7723.05        1.14006        2.08618        1.14241        1.88852       0.17545      -0.139482
  7723.21        1.16886        2.06684        1.17145        1.86944       0.13813      -0.147348
  7723.41        1.1891        2.0441        1.19199        1.847       0.123141      -0.0142693
  7723.6        1.21688        2.02123        1.22008        1.82443       0.132565      -0.055887
  7723.8        1.24133        1.99869        1.24484        1.80219       0.101122      -0.154287
  7724        1.25703        1.97615        1.26084        1.77996       0.071313  -0.160445
  7724.2        1.26971        1.95417        1.27384        1.75829       0.0372647  -0.14437
  7724.4        1.27178        1.93252        1.27622        1.73695       0.0141425  -0.0512044
  7724.59        1.27528        1.91142        1.28002        1.71615       0.0170902  -0.0464878
  7724.79        1.2785        1.89053        1.28354        1.69557      -0.00412724  -0.124775
  7725.01        1.27357        1.86769        1.27895        1.67307      -0.0348162  -0.0427215
  7725.72        1.24598        1.79583        1.25247        1.60232      -0.0440291  -0.00955318
  7726.51        1.20757        1.72174        1.21527        1.52945      -0.0491365   0.000535546
  7727.3        1.1684        1.65147        1.17734        1.46041      -0.0431835   0.00616608
  7728.07        1.14024        1.5884        1.15037        1.39853      -0.0395235   0.0100485
  7728.83        1.108        1.52957        1.11931        1.34088      -0.0278293   0.0195811
  7729.59        1.09775        1.47491        1.11024        1.2874      -0.0096232   0.0161593
  7730.35        1.09335        1.42438        1.10702        1.23805      -0.00321865   0.00571838
  7731.15        1.09275        1.37562        1.10765        1.19053      -0.000736836   0.00414708
  7731.91        1.0922        1.33251        1.10829        1.1486       0.00323835  -0.00434048
  7732.68        1.09771        1.29261        1.11499        1.10989      -0.00738646  -0.0083799
  7733.44        1.08089        1.25647        1.09936        1.07493      -0.00959128   0.00371139
  7734.21        1.08299        1.22311        1.10265        1.04277      -0.00168947  -0.00240775
  7734.98        1.0783        1.19333        1.09914        1.01418      -0.0132872  -0.00907253
  7735.77        1.06224        1.16528        1.08433       0.987362      -0.0158517   0.00769468
  7736.54        1.05352        1.14134        1.07679       0.96461      -0.0012604   0.00709993
  7737.31        1.06031        1.11993        1.08478       0.944392      -0.00496038  -0.0122985
  7738.08        1.04589        1.10112        1.07155       0.926773      -0.0201877  -0.00831912
  7738.84        1.02932        1.08479        1.05617       0.911639      -0.0177302   0.00628134
  7739.62        1.01862        1.07064        1.04666       0.898681      -0.010527   0.00171607
  7740.39        1.01307        1.05864        1.04231       0.887884      -0.0150806  -0.00671488
  7741.16       0.99532        1.04865        1.02576       0.879092      -0.0209015  -0.005513
  7741.95       0.980379        1.04037        1.01205       0.872035      -0.023703  -0.000276312
  7744.45       0.917314        1.02533       0.952861       0.860882      -0.0218108   0.00144293
  7746.97       0.870954        1.02347       0.910406       0.862923      -0.0164638   0.00173746
  7749.45       0.834979        1.0298       0.878285       0.873107      -0.0131218   0.00105523
  7751.94       0.805791        1.0394       0.852948       0.886558      -0.0112235   0.00104159
  7754.45       0.778838        1.04878       0.829905       0.899851      -0.00791177   0.00201786
  7756.95       0.766122        1.05722       0.821057       0.912154      -0.001106   0.00259168
  7759.43       0.773336        1.06479       0.832121       0.923573       0.00498184   0.00178218
  7761.95       0.791021        1.07166       0.853711       0.934346       0.00780132   0.001302
  7764.47       0.812639        1.07774       0.87924       0.94434       0.0115413   0.000671473
  7766.97       0.848935        1.083       0.91941       0.953477       0.0111708  -9.85078e-06
  7769.46       0.868426        1.08753       0.942775       0.961878       0.0114921   5.02462e-05
  7771.99       0.906648        1.09138       0.984915       0.96965       0.0114231  -0.00128211
  7774.49       0.925839        1.09451        1.00799       0.976652       0.00504824  -0.00188584
  7777       0.93194        1.09697        1.01798       0.983006       0.00197506  -0.000651309
  7780.56       0.937835        1.09935        1.02941       0.990924       0.00109219  -0.000834246
  7784.15       0.939751        1.1005        1.03689       0.997635      -0.00399146  -0.000581089
  7787.69       0.909372        1.10046        1.01201        1.0031      -0.00305156   0.000685726
  7791.28       0.917985        1.09931        1.02619        1.00751       0.000899819   0.000203504
  7794.86       0.915823        1.09711        1.02958        1.01086      -0.00159264  -0.000596507
  7798.44       0.906591        1.09393        1.02589        1.01323      -0.00336759  -0.000244199
  7802.02       0.891734        1.08983        1.01659        1.01468      -0.0033394  -2.45263e-05
  7805.61       0.882621        1.08485        1.01306        1.01529      -0.00354364   9.90548e-05
  7809.2       0.866259        1.07911        1.00227        1.01511      -0.00262729   0.000503775
  7812.81       0.863717        1.07262        1.00532        1.01422       8.10219e-05  -2.26618e-05
  7816.38       0.866841        1.06554        1.01398        1.01269      -0.00278994  -0.000521783
  7819.99       0.843672        1.05781       0.99642        1.01055      -0.00366799   3.33599e-05
  7823.6       0.840343        1.04956       0.998693        1.00791      -0.00254894  -0.000101973
  7827.22       0.825245        1.04085       0.989209        1.00481      -0.00440516   5.98549e-05
  7830.81       0.808586        1.03183       0.978121        1.00137      -0.00211745   0.000728571
  7834.44       0.809968        1.02242       0.985125       0.997581       0.000851482  -4.02644e-05
  7838.06       0.814756        1.01278       0.995533       0.99356      -0.00240921  -0.000365067
  7841.69       0.792496        1.00295       0.978905       0.989362      -0.00179599   0.000681733
  7845.32       0.801717       0.993026       0.993757       0.985066       0.00254017   0.00119453