File: Dynamic XAS/Dynamic XAS Energy analyzed data/ESweep_0_5 Hz/Same Eo/Normalized Spectra/Ir0_5Hz_ReaddMean_VPhsCorrect_39_-242_mV_.csv.nor
# XDI/1.0 Athena/0.9.26
# Element.edge:                  K
# Element.symbol:                Co
# Column.1:                      energy eV
# Column.2:                      norm
# Column.3:                      nbkg
# Column.4:                      flat
# Column.5:                      fbkg
# Column.6:                      nder
# Column.7:                      nsec
# Athena.e0:                     7721.54
# Athena.eshift:                 0
# Athena.rbkg:                   1.0
# Athena.importance:             1
# Athena.standard:               None
# Athena.bkg_kweight:            3
# Athena.edge_step:              1.19341
# Athena.fixed_step:             no
# Athena.pre_edge_range:         -82.964 -19.904
# Athena.pre_edge_line:          -0.015496 + 0.00021668 * E
# Athena.normalization_range:    45 125.256
# Athena.post_edge_polynomial:   15.6267 - 0.00165455 * E + 0 * E^2 + 0 * E^3
# Athena.spline_range_energy:    0.000 125.180
# Athena.clamps:                 0 24
# Athena.spline_range_k:         0.000 5.732
# Athena.kweight:                2
# Athena.window:                 hanning
# Athena.phase_correction:       no
# Athena.k_range:                .4 5.35
# Athena.dk:                     .5
# Athena.r_range:                .4 5.1
# Athena.dr:                     .5
# Athena.window:                 hanning
# Athena.plot_multiplier:        1
# Athena.y_offset:               0.2
# ///
#------------------------
#   e         norm        nbkg        flat        fbkg        nder        nsec
  7600.07      -0.21211      -0.0121105  -0.21211      -0.21211       0.0121322  -0.000502712
  7610.64      -0.0838248   0.116175      -0.0838248  -0.0838248   0.00681651  -0.000378674
  7624.56      -0.0451809   0.154819      -0.0451809  -0.0451809   0.00285883  -0.000212613
  7637.2      -0.007897   0.192103      -0.007897  -0.007897   0.00116972  -0.000126652
  7649.7      -0.0157707   0.184229      -0.0157707  -0.0157707  -0.000325576   0.000106215
  7662.2      -0.0160361   0.183964      -0.0160361  -0.0160361   0.00382498   2.02917e-05
  7674.73       0.0799838   0.279984       0.0799838   0.0799838   0.000182408  -0.000293579
  7687.33      -0.0114518   0.188548      -0.0114518  -0.0114518  -0.00355325   1.01917e-05
  7700.01      -0.00983178   0.190168      -0.00983178  -0.00983178   0.000440022   0.0011166
  7700.39      -0.00570642   0.194294      -0.00570642  -0.00570642   0.0110261   0.00509803
  7700.72      -0.00201425   0.197986      -0.00201425  -0.00201425   0.00405452  -0.0253918
  7701.07      -0.00293718   0.197063      -0.00293718  -0.00293718  -0.00631647  -0.00349862
  7701.43      -0.00653053   0.193469      -0.00653053  -0.00653053   0.00155301   0.01694
  7701.8      -0.00180814   0.198192      -0.00180814  -0.00180814   0.00599894  -0.00671578
  7702.15      -0.0022053   0.197795      -0.0022053  -0.0022053  -0.00328906  -0.0169343
  7702.52      -0.0041664   0.195834      -0.0041664  -0.0041664  -0.00614295   0.000153284
  7702.88      -0.00665279   0.193347      -0.00665279  -0.00665279  -0.00317808   0.00862116
  7703.24      -0.00647687   0.193523      -0.00647687  -0.00647687   0.000124637   0.00654023
  7703.6      -0.00656293   0.193437      -0.00656293  -0.00656293   0.00153742   0.0109286
  7703.96      -0.00537146   0.194629      -0.00537146  -0.00537146   0.00798229   0.00466777
  7704.32      -0.000775764   0.199224      -0.000775764  -0.000775764   0.00492156  -0.0144895
  7704.69      -0.00179842   0.198202      -0.00179842  -0.00179842  -0.00253709  -0.0115601
  7705.02      -0.00253904   0.197461      -0.00253904  -0.00253904  -0.00311274   0.00508477
  7705.38      -0.00395866   0.196041      -0.00395866  -0.00395866   0.000991743   0.0270538
  7705.75      -0.00181606   0.198184      -0.00181606  -0.00181606   0.0166095   0.0323804
  7706.11       0.00818288   0.208183       0.00818288   0.00818288   0.0246618   0.019797
  7706.47       0.0159898   0.21599       0.0159898   0.0159898   0.0309029   0.0111175
  7706.83       0.0304021   0.230402       0.0304021   0.0304021   0.0326553  -0.00702077
  7707.2       0.0396648   0.239665       0.0396648   0.0396648   0.0258129  -0.0209474
  7707.56       0.0491423   0.249142       0.0491423   0.0491423   0.0174475  -0.0313474
  7707.91       0.0522096   0.25221       0.0522096   0.0522096   0.00327411  -0.0238689
  7708.28       0.0515094   0.251509       0.0515094   0.0515094   0.000190246  -0.0053844
  7708.65       0.0523486   0.252349       0.0523486   0.0523486  -0.000661887  -0.0111947
  7708.98       0.0510448   0.251045       0.0510448   0.0510448  -0.00766842  -0.000241609
  7709.29       0.0474102   0.24741       0.0474102   0.0474102  -0.000817483   0.0255977
  7709.6       0.0505429   0.250543       0.0505429   0.0505429   0.00804859  -0.00159297
  7709.9       0.052344   0.252344       0.052344   0.052344  -0.00179397  -0.035898
  7710.21       0.0494396   0.24944       0.0494396   0.0494396  -0.0140287  -0.0097143
  7710.51       0.0437724   0.243772       0.0437724   0.0437724  -0.00772941   0.0255235
  7710.82       0.0447092   0.244709       0.0447092   0.0447092   0.00159169   0.0330896
  7711.11       0.0447179   0.244718       0.0447179   0.0447179   0.0119258   0.00921501
  7711.42       0.0517812   0.251781       0.0517812   0.0517812   0.00705619  -0.024433
  7711.73       0.0490716   0.249072       0.0490716   0.0490716  -0.00314933  -0.00998062
  7712.03       0.0498506   0.249851       0.0498506   0.0498506   0.000938074  -0.00472876
  7712.33       0.0496419   0.249642       0.0496419   0.0496419  -0.00602441   0.0115807
  7712.64       0.0461456   0.246146       0.0461456   0.0461456   0.00806023   0.0430358
  7712.95       0.0546393   0.254639       0.0546393   0.0546393   0.0206578   0.0324573
  7713.23       0.0583544   0.258354       0.0583544   0.0583544   0.0272425   0.0407722
  7713.54       0.0705761   0.270576       0.0705761   0.0705761   0.0445095   0.0582375
  7713.85       0.0858612   0.285861       0.0858612   0.0858612   0.0632332   0.0534349
  7714.16       0.10997       0.30997       0.10997       0.10997       0.0777994   0.0104341
  7714.47       0.133863       0.333863       0.133863       0.133863       0.0696711  -0.0414511
  7714.78       0.152888       0.352888       0.152888       0.152888       0.0522656  -0.0516185
  7715.08       0.165589       0.365589       0.165589       0.165589       0.0383387  -0.00985795
  7715.39       0.176236       0.376236       0.176236       0.176236       0.0462621   0.0186006
  7715.67       0.193022       0.393022       0.193022       0.193022       0.0493689  -0.0214249
  7715.97       0.205166       0.405166       0.205166       0.205166       0.0337071  -0.0767473
  7716.14       0.208763       0.408763       0.208763       0.208763       0.0135279  -0.0104606
  7716.26       0.208995       0.408995       0.208995       0.208995       0.0307467   0.203147
  7716.37       0.215835       0.415835       0.215835       0.215835       0.0602517   0.123071
  7716.5       0.223696       0.423696       0.223696       0.223696       0.0607761   0.0283534
  7716.62       0.231211       0.431211       0.231211       0.231211       0.0674251  -0.0362423
  7716.73       0.239474       0.439474       0.239474       0.239474       0.0522954  -0.0634282
  7716.87       0.244128       0.444128       0.244128       0.244128       0.0517583  -0.0301424
  7716.99       0.252672       0.452672       0.252672       0.252672       0.0446091  -0.10341
  7717.1       0.254567       0.454567       0.254567       0.254567       0.0275604   0.0697866
  7717.23       0.259424       0.459424       0.259424       0.259424       0.0617068   0.301461
  7717.35       0.269932       0.469932       0.269932       0.269932       0.102624       0.00616056
  7717.46       0.282925       0.482925       0.282925       0.282925       0.0631176  -0.227467
  7717.59       0.285206       0.485206       0.285206       0.285206       0.0475772   0.142577
  7717.71       0.294724       0.494724       0.294724       0.294724       0.0984766   0.1761
  7717.84       0.309825       0.509825       0.309825       0.309825       0.0916022  -0.0981263
  7717.96       0.317625       0.517625       0.317625       0.317625       0.073945   0.107972
  7718.07       0.326981       0.526981       0.326981       0.326981       0.116652       0.194207
  7718.21       0.346321       0.546321       0.346321       0.346321       0.12172      -0.194808
  7718.33       0.357898       0.557898       0.357898       0.357898       0.0671705  -0.194554
  7718.44       0.362106       0.562106       0.362106       0.362106       0.0759999   0.169677
  7718.57       0.376518       0.576518       0.376518       0.376518       0.108741       0.061883
  7718.69       0.389509       0.589509       0.389509       0.389509       0.0915944  -0.0623861
  7718.81       0.397767       0.597768       0.397767       0.397767       0.0942679   0.209683
  7718.94       0.412416       0.612416       0.412416       0.412416       0.142547       0.320138
  7719.06       0.433547       0.633547       0.433547       0.433547       0.174623      -0.0690872
  7719.17       0.452929       0.652929       0.452929       0.452929       0.126519      -0.288458
  7719.3       0.464291       0.664291       0.464291       0.464291       0.104527       0.113231
  7719.42       0.479269       0.679269       0.479269       0.479269       0.155053       0.178542
  7719.53       0.500884       0.700884       0.500884       0.500884       0.146663      -0.0806006
  7719.67       0.515349       0.715349       0.515349       0.515349       0.135226       0.134837
  7719.79       0.535096       0.735096       0.535096       0.535096       0.180777       0.235321
  7719.9       0.557831       0.757831       0.557831       0.557831       0.190526      -0.0351623
  7720.03       0.581965       0.781965       0.581965       0.581965       0.172127       0.0997231
  7720.15       0.601379       0.801379       0.601379       0.601379       0.215756       0.0679952
  7720.27       0.632236       0.832236       0.632236       0.632236       0.18797      -0.300448
  7720.4       0.647056       0.847056       0.647056       0.647056       0.142747      -0.0871196
  7720.52       0.66778       0.86778       0.66778       0.66778       0.166277       0.159011
  7720.65       0.688459       0.888459       0.688459       0.688459       0.182341       0.319666
  7720.77       0.713365       0.913365       0.713365       0.713365       0.246194       0.130586
  7720.88       0.745822       0.945822       0.745822       0.745822       0.212767      -0.23817
  7721.01       0.765919       0.965919       0.765919       0.765919       0.187366      -0.0195393
  7721.13       0.793413       0.993413       0.793413       0.793413       0.207804       0.0206789
  7721.25       0.814337        1.01434       0.814337       0.814337       0.192184       0.0460878
  7721.38       0.84069        1.04069       0.84069       0.84069       0.219142       0.253786
  7721.5       0.869999        1.07       0.869937       0.869937       0.256646      -0.00932722
  7721.61       0.900489        2.22883       0.900602        2.02894       0.216969      -0.158983
  7721.74       0.92294        2.2119       0.92326        2.01222       0.217854       0.191108
  7721.86       0.954952        2.19691       0.955457        1.99741       0.264746      -0.0793286
  7721.97       0.983831        2.18279       0.984512        1.98347       0.199608      -0.542434
  7722.1        1.00326        2.16654        1.00414        1.96742       0.133477      -0.0394269
  7722.23        1.01747        2.15142        1.01854        1.9525       0.189673       0.296965
  7722.36        1.05143        2.13522        1.05272        1.9365       0.208906      -0.129693
  7722.48        1.07032        2.1205        1.07179        1.92197       0.15686      -0.289553
  7722.59        1.0883        2.10675        1.08995        1.9084       0.140861      -0.226145
  7722.72        1.10483        2.09109        1.10669        1.89294       0.101455      -0.131544
  7722.85        1.11396        2.07663        1.11601        1.87868       0.10758       0.182896
  7722.96        1.13001        2.06348        1.13223        1.8657       0.144252       0.177493
  7723.05        1.14354        2.05264        1.14591        1.85501       0.143966      -0.115827
  7723.21        1.16672        2.03393        1.16934        1.83655       0.114716      -0.112901
  7723.41        1.18426        2.01193        1.18719        1.81486       0.103887      -0.00665677
  7723.6        1.20723        1.9898        1.21047        1.79304       0.11212      -0.0285003
  7723.8        1.22844        1.968        1.23198        1.77154       0.0926575  -0.13578
  7724        1.24402        1.94619        1.24787        1.75005       0.0582155  -0.177112
  7724.2        1.25161        1.92493        1.25577        1.7291       0.0221669  -0.132868
  7724.4        1.2528        1.90399        1.25727        1.70847       0.00559993  -0.0312354
  7724.59        1.25381        1.88358        1.2586        1.68836       0.00986019  -0.0387612
  7724.79        1.25667        1.86337        1.26177        1.66847      -0.00963322  -0.101347
  7725.01        1.2498        1.84128        1.25524        1.64671      -0.0323  -0.0291672
  7725.72        1.2265        1.77178        1.23306        1.57834      -0.0368754  -0.00625533
  7726.51        1.19453        1.70011        1.20232        1.5079      -0.0416767   0.00036458
  7727.3        1.16069        1.63215        1.16973        1.44119      -0.0362997   0.00439998
  7728.07        1.13794        1.57116        1.14817        1.3814      -0.0348172   0.00596749
  7728.83        1.10749        1.51428        1.11892        1.32571      -0.0271814   0.0152819
  7729.59        1.09643        1.46142        1.10906        1.27405      -0.0114817   0.0139768
  7730.35        1.09001        1.41257        1.10383        1.22639      -0.00589466   0.00494647
  7731.15        1.08727        1.36544        1.10233        1.18051      -0.00379487   0.00478459
  7731.91        1.0841        1.32377        1.10036        1.14003       0.00155495  -0.00240346
  7732.68        1.08965        1.28521        1.10712        1.10268      -0.00747697  -0.0066627
  7733.44        1.07265        1.25029        1.09131        1.06895      -0.00864565   0.00468043
  7734.21        1.07638        1.21806        1.09625        1.03793      -0.000292505  -0.00211545
  7734.98        1.0722        1.1893        1.09327        1.01036      -0.0118929  -0.00915522
  7735.77        1.05782        1.16221        1.08014       0.984525      -0.0145838   0.0078889
  7736.54        1.04941        1.1391        1.07293       0.962614       0.000437488   0.00661188
  7737.31        1.05849        1.11843        1.08321       0.943155      -0.00444117  -0.0145393
  7738.08        1.04257        1.10028        1.0685       0.926212      -0.0219385  -0.00858102
  7738.84        1.02481        1.08454        1.05195       0.911672      -0.017613   0.00781593
  7739.62        1.01548        1.0709        1.04383       0.89924      -0.00991761   0.00160732
  7740.39        1.0095        1.05934        1.03905       0.888897      -0.0151313  -0.00776124
  7741.16       0.992107        1.04973        1.02287       0.880494      -0.0219087  -0.00560682
  7741.95       0.975235        1.04177        1.00724       0.873772      -0.0239004   0.000138246
  7744.45       0.91345        1.02739       0.949376       0.863311      -0.0214538   0.00162901
  7746.97       0.867601        1.02573       0.907473       0.865603      -0.0157277   0.00187549
  7749.45       0.834796        1.03198       0.878563       0.875751      -0.0120744   0.00103986
  7751.94       0.80764        1.04137       0.855298       0.889031      -0.0105638   0.000943543
  7754.45       0.781956        1.05052       0.833566       0.902132      -0.00735482   0.00198684
  7756.95       0.770763        1.05872       0.826283       0.914242      -0.000601758   0.00256542
  7759.43       0.778963        1.06606       0.838373       0.925468       0.00540816   0.00168788
  7761.95       0.797793        1.07269       0.86115       0.936045       0.00783427   0.00111886
  7764.47       0.818432        1.07853       0.885742       0.945842       0.011045   0.000500634
  7766.97       0.853216        1.08356       0.924442       0.954785       0.0103465  -8.33365e-05
  7769.46       0.870102        1.08786       0.945242       0.962996       0.0106288   0.000129022
  7771.99       0.906594        1.09148       0.985694       0.970578       0.0109944  -0.0012111
  7774.49       0.92536        1.09438        1.00838       0.977397       0.00454185  -0.00185968
  7777       0.929349        1.09662        1.0163       0.983573       0.00167739  -0.000584159
  7780.56       0.935548        1.0987        1.02809       0.991248       0.00099367  -0.000793565
  7784.15       0.936456        1.09956        1.03462       0.997733      -0.00399819  -0.000536141
  7787.69       0.907037        1.09926        1.01076        1.00299      -0.00282955   0.00067473
  7791.28       0.916273        1.09787        1.02563        1.00722       0.000814661   0.000163146
  7794.86       0.912877        1.09544        1.02784        1.01041      -0.00165996  -0.000587822
  7798.44       0.904397        1.09207        1.02497        1.01264      -0.00339062  -0.0002735
  7802.02       0.888624        1.08782        1.01481        1.014      -0.00361631   2.02817e-05
  7805.61       0.878439        1.08272        1.01026        1.01454      -0.00324503   0.000176924
  7809.2       0.865296        1.07688        1.00275        1.01434      -0.00234441   0.00044794
  7812.81       0.861571        1.07035        1.00468        1.01345      -2.21055e-05  -3.7459e-05
  7816.38       0.865137        1.06327        1.01385        1.01198      -0.00261325  -0.000478084
  7819.99       0.842795        1.05558       0.997168        1.00995      -0.00345714   2.89337e-05
  7823.6       0.840163        1.04743        1.0002        1.00746      -0.00240423  -0.000172351
  7827.22       0.825415        1.03886       0.991123        1.00457      -0.00470307   2.50366e-05
  7830.81       0.806258        1.03005       0.977597        1.00139      -0.00222374   0.000799335
  7834.44       0.809371        1.0209       0.986392       0.997926       0.00106414  -5.78552e-05
  7838.06       0.813969        1.01159       0.996669       0.994291      -0.00264296  -0.000414969
  7841.69       0.790204        1.00215       0.978596       0.990547      -0.00194522   0.000729944
  7845.32       0.799847       0.992691       0.99393       0.986774       0.00265643   0.00126767