File: Dynamic XAS/Dynamic XAS Energy analyzed data/ESweep_0_5 Hz/Same Eo/Normalized Spectra/Ir0_5Hz_ReaddMean_VPhsCorrect_27_-77_mV_.csv.nor
# XDI/1.0 Athena/0.9.26
# Element.edge:                  K
# Element.symbol:                Co
# Column.1:                      energy eV
# Column.2:                      norm
# Column.3:                      nbkg
# Column.4:                      flat
# Column.5:                      fbkg
# Column.6:                      nder
# Column.7:                      nsec
# Athena.e0:                     7721.54
# Athena.eshift:                 0
# Athena.rbkg:                   1.0
# Athena.importance:             1
# Athena.standard:               None
# Athena.bkg_kweight:            3
# Athena.edge_step:              1.19458
# Athena.fixed_step:             no
# Athena.pre_edge_range:         -82.964 -19.904
# Athena.pre_edge_line:          0.227752 + 0.000185002 * E
# Athena.normalization_range:    45 125.256
# Athena.post_edge_polynomial:   15.6754 - 0.00166088 * E + 0 * E^2 + 0 * E^3
# Athena.spline_range_energy:    0.000 125.180
# Athena.clamps:                 0 24
# Athena.spline_range_k:         0.000 5.732
# Athena.kweight:                2
# Athena.window:                 hanning
# Athena.phase_correction:       no
# Athena.k_range:                .4 5.35
# Athena.dk:                     .5
# Athena.r_range:                .4 5.1
# Athena.dr:                     .5
# Athena.window:                 hanning
# Athena.plot_multiplier:        1
# Athena.y_offset:               0.2
# ///
#------------------------
#   e         norm        nbkg        flat        fbkg        nder        nsec
  7600.07      -0.214061      -0.0140613  -0.214061      -0.214061       0.0120524  -0.000497656
  7610.64      -0.0866193   0.113381      -0.0866193  -0.0866193   0.00679018  -0.000370097
  7624.56      -0.0477766   0.152223      -0.0477766  -0.0477766   0.00298909  -0.000206112
  7637.2      -0.00723208   0.192768      -0.00723208  -0.00723208   0.00131606  -0.000133943
  7649.7      -0.014687   0.185313      -0.014687  -0.014687  -0.000378633   9.3785e-05
  7662.2      -0.0166975   0.183302      -0.0166975  -0.0166975   0.00366059   2.41899e-05
  7674.73       0.0769522   0.276952       0.0769522   0.0769522   0.000226937  -0.000280206
  7687.33      -0.0109941   0.189006      -0.0109941  -0.0109941  -0.00338156   7.29514e-06
  7700.01      -0.00852344   0.191477      -0.00852344  -0.00852344   0.000411336   0.000934015
  7700.39      -0.00562334   0.194377      -0.00562334  -0.00562334   0.00881387   0.00475771
  7700.72      -0.0022744   0.197726      -0.0022744  -0.0022744   0.00378455  -0.0210084
  7701.07      -0.00303849   0.196962      -0.00303849  -0.00303849  -0.00553486  -0.0026219
  7701.43      -0.00623183   0.193768      -0.00623183  -0.00623183   0.00190989   0.0172564
  7701.8      -0.00165   0.19835      -0.00165  -0.00165   0.00701051  -0.00768792
  7702.15      -0.00117725   0.198823      -0.00117725  -0.00117725  -0.0036331  -0.018987
  7702.52      -0.00425493   0.195745      -0.00425493  -0.00425493  -0.00660313  -0.000401677
  7702.88      -0.00595792   0.194042      -0.00595792  -0.00595792  -0.00392391   0.00596429
  7703.24      -0.00710762   0.192892      -0.00710762  -0.00710762  -0.00226709   0.0127322
  7703.6      -0.00759249   0.192408      -0.00759249  -0.00759249   0.00525602   0.0164393
  7703.96      -0.00332854   0.196671      -0.00332854  -0.00332854   0.00955274  -0.00322641
  7704.32      -0.000666757   0.199333      -0.000666757  -0.000666757   0.00291687  -0.0166638
  7704.69      -0.00121089   0.198789      -0.00121089  -0.00121089  -0.00254521  -0.0104377
  7705.02      -0.00243568   0.197564      -0.00243568  -0.00243568  -0.0043373   0.00343364
  7705.38      -0.00422097   0.195779      -0.00422097  -0.00422097  -0.000162263   0.0287436
  7705.75      -0.00255397   0.197446      -0.00255397  -0.00255397   0.0166168   0.0323345
  7706.11       0.00792592   0.207926       0.00792592   0.00792592   0.0234742   0.0164752
  7706.47       0.0143944   0.214394       0.0143944   0.0143944   0.0285119   0.0143587
  7706.83       0.028426   0.228426       0.028426   0.028426   0.0337982  -0.00249615
  7707.2       0.0388981   0.238898       0.0388981   0.0388981   0.0267022  -0.0238425
  7707.56       0.0478118   0.247812       0.0478118   0.0478118   0.0164885  -0.0302151
  7707.91       0.0507533   0.250753       0.0507533   0.0507533   0.00497755  -0.0161536
  7708.28       0.0514106   0.251411       0.0514106   0.0514106   0.00480943  -0.00582642
  7708.65       0.054269   0.254269       0.054269   0.054269   0.000718439  -0.0177201
  7708.98       0.0519149   0.251915       0.0519149   0.0519149  -0.00763006   0.000954863
  7709.29       0.0493553   0.249355       0.0493553   0.0493553   0.00133337   0.0232859
  7709.6       0.0527336   0.252734       0.0527336   0.0527336   0.00666749  -0.0129011
  7709.9       0.0534424   0.253442       0.0534424   0.0534424  -0.00657498  -0.0310959
  7710.21       0.04869   0.24869       0.04869   0.04869  -0.0124565  -0.00136557
  7710.51       0.0458315   0.245832       0.0458315   0.0458315  -0.00740935   0.0136024
  7710.82       0.0441555   0.244155       0.0441555   0.0441555  -0.00413179   0.023171
  7711.11       0.0433773   0.243377       0.0433773   0.0433773   0.00635423   0.0132989
  7711.42       0.0479235   0.247924       0.0479235   0.0479235   0.00375449  -0.0178341
  7711.73       0.0456938   0.245694       0.0456938   0.0456938  -0.00464939  -0.00585954
  7712.03       0.0450735   0.245073       0.0450735   0.0450735   0.000162588  -0.00382924
  7712.33       0.0457926   0.245793       0.0457926   0.0457926  -0.00697756   0.00300167
  7712.64       0.0407823   0.240782       0.0407823   0.0407823   0.00200862   0.0380965
  7712.95       0.047038   0.247038       0.047038   0.047038   0.0166423   0.0395074
  7713.23       0.0506179   0.250618       0.0506179   0.0506179   0.0253575   0.0483357
  7713.54       0.0618721   0.261872       0.0618721   0.0618721   0.0449186   0.0570042
  7713.85       0.0783776   0.278378       0.0783776   0.0783776   0.0605861   0.0495517
  7714.16       0.0996173   0.299617       0.0996173   0.0996173   0.0757894   0.0120221
  7714.47       0.12514       0.32514       0.12514       0.12514       0.0680038  -0.0496
  7714.78       0.141508       0.341508       0.141508       0.141508       0.0452358  -0.0424508
  7715.08       0.152598       0.352598       0.152598       0.152598       0.0422361   0.00869766
  7715.39       0.167229       0.367229       0.167229       0.167229       0.0505327  -0.0016993
  7715.67       0.182564       0.382564       0.182564       0.182564       0.0412285  -0.053623
  7715.97       0.191389       0.391389       0.191389       0.191389       0.0191096  -0.0384041
  7716.14       0.191488       0.391488       0.191488       0.191488       0.0232937   0.0526903
  7716.26       0.197981       0.397981       0.197981       0.197981       0.0340209   0.0507482
  7716.37       0.199313       0.399313       0.199313       0.199313       0.0349658   0.178477
  7716.5       0.206513       0.406513       0.206513       0.206513       0.0775694   0.155462
  7716.62       0.218938       0.418938       0.218938       0.218938       0.0742978  -0.090529
  7716.73       0.223899       0.423899       0.223899       0.223899       0.0563856  -0.172516
  7716.87       0.232865       0.432865       0.232865       0.232865       0.0316863  -0.0920826
  7716.99       0.231979       0.431979       0.231979       0.231979       0.0329046   0.104393
  7717.1       0.240565       0.440565       0.240565       0.240565       0.0561143   0.0135158
  7717.23       0.245727       0.445727       0.245727       0.245727       0.0362159   0.0652357
  7717.35       0.249582       0.449582       0.249582       0.249582       0.072358   0.126444
  7717.46       0.262297       0.462297       0.262297       0.262297       0.0651717  -0.124688
  7717.59       0.265354       0.465354       0.265354       0.265354       0.0421836   0.0641246
  7717.71       0.272758       0.472758       0.272758       0.272758       0.0810746   0.270905
  7717.84       0.285623       0.485623       0.285623       0.285623       0.10991       0.106658
  7717.96       0.300236       0.500236       0.300236       0.300236       0.107739      -0.113257
  7718.07       0.310618       0.510618       0.310618       0.310618       0.0836342  -0.0862006
  7718.21       0.32081       0.52081       0.32081       0.32081       0.0865337  -0.00409542
  7718.33       0.332598       0.532598       0.332598       0.332598       0.0825939  -0.0248191
  7718.44       0.340219       0.540219       0.340219       0.340219       0.0807012   0.00902727
  7718.57       0.352369       0.552369       0.352369       0.352369       0.0848056   0.129885
  7718.69       0.36159       0.56159       0.36159       0.36159       0.113432       0.200284
  7718.81       0.378686       0.578686       0.378686       0.378686       0.131271      -0.0825497
  7718.94       0.393489       0.593489       0.393489       0.393489       0.0933728  -0.0461024
  7719.06       0.402122       0.602122       0.402122       0.402122       0.1197       0.161233
  7719.17       0.42126       0.62126       0.42126       0.42126       0.130779       0.0549699
  7719.3       0.433901       0.633901       0.433901       0.433901       0.133057       0.187468
  7719.42       0.45479       0.65479       0.45479       0.45479       0.178021       0.120072
  7719.53       0.475914       0.675914       0.475914       0.475914       0.161394      -0.148066
  7719.67       0.494493       0.694493       0.494493       0.494493       0.141596      -0.116037
  7719.79       0.511738       0.711738       0.511738       0.511738       0.132037       0.0419755
  7719.9       0.525522       0.725522       0.525522       0.525522       0.151461       0.295298
  7720.03       0.548998       0.748998       0.548998       0.548998       0.20468       0.23733
  7720.15       0.577306       0.777306       0.577306       0.577306       0.211505      -0.021791
  7720.27       0.598278       0.798278       0.598278       0.598278       0.199603      -0.111471
  7720.4       0.625809       0.825809       0.625809       0.625809       0.184418      -0.154152
  7720.52       0.644198       0.844198       0.644198       0.644198       0.161219      -0.0681932
  7720.65       0.665953       0.865953       0.665953       0.665953       0.167438       0.13922
  7720.77       0.686058       0.886058       0.686058       0.686058       0.196024       0.336963
  7720.88       0.711627       0.911627       0.711627       0.711627       0.24595       0.0986609
  7721.01       0.746807       0.946807       0.746807       0.746807       0.220393      -0.346343
  7721.13       0.767607       0.967607       0.767607       0.767607       0.157979      -0.145837
  7721.25       0.783616       0.983616       0.783616       0.783616       0.186413       0.334981
  7721.38       0.813464        1.01346       0.813464       0.813464       0.240384       0.313704
  7721.5       0.844674        1.04467       0.844612       0.844612       0.266094       0.0211875
  7721.61       0.875464        2.26702       0.875576        2.06713       0.245321      -0.179313
  7721.74       0.904532        2.24952       0.904848        2.04984       0.222342       0.0485091
  7721.86       0.93105        2.23402       0.931547        2.03452       0.257448      -0.0920788
  7721.97       0.963746        2.21943       0.964416        2.0201       0.201164      -0.406895
  7722.1       0.979731        2.20263       0.980603        2.0035       0.15898       0.0798696
  7722.23        1.00381        2.18701        1.00487        1.98806       0.221291       0.244405
  7722.36        1.03594        2.17025        1.0372        1.97152       0.221059      -0.186533
  7722.48        1.05974        2.15504        1.06119        1.95649       0.174098      -0.269702
  7722.59        1.07685        2.14082        1.07848        1.94245       0.157678      -0.22049
  7722.72        1.09837        2.12463        1.1002        1.92646       0.120078      -0.173339
  7722.85        1.10723        2.10969        1.10925        1.91171       0.113824       0.200674
  7722.96        1.125        2.09609        1.12719        1.89828       0.167036       0.273107
  7723.05        1.14147        2.08488        1.14381        1.88722       0.16981      -0.128193
  7723.21        1.1683        2.06555        1.17089        1.86813       0.134347      -0.132118
  7723.41        1.18917        2.04281        1.19205        1.84569       0.122908      -0.012316
  7723.6        1.21624        2.01993        1.21943        1.82312       0.129543      -0.0539397
  7723.8        1.24021        1.99739        1.2437        1.80088       0.101656      -0.161921
  7724        1.2566        1.97485        1.2604        1.77865       0.0652606  -0.212371
  7724.2        1.26618        1.95287        1.27029        1.75698       0.0171326  -0.151111
  7724.4        1.26338        1.93123        1.26779        1.73564       0.00542057  -0.000810108
  7724.59        1.26832        1.91013        1.27303        1.71484       0.0168134  -0.0417538
  7724.79        1.26999        1.88924        1.27501        1.69426      -0.0109887  -0.120388
  7725.01        1.26375        1.8664        1.2691        1.67176      -0.033268  -0.0316267
  7725.72        1.23892        1.79456        1.24538        1.60103      -0.040528  -0.00831248
  7726.51        1.20299        1.72049        1.21067        1.52817      -0.0457284   0.000949431
  7727.3        1.16671        1.65025        1.17561        1.45915      -0.0390289   0.00507347
  7728.07        1.14215        1.58721        1.15223        1.3973      -0.0378188   0.00556486
  7728.83        1.10892        1.52842        1.12019        1.33969      -0.0305257   0.0187648
  7729.59        1.09554        1.4738        1.10798        1.28624      -0.00916495   0.0185038
  7730.35        1.09496        1.42332        1.10858        1.23694      -0.00234452   0.00456342
  7731.15        1.09189        1.37462        1.10674        1.18946      -0.00207339   0.0029271
  7731.91        1.09174        1.33156        1.10776        1.14758       0.00221297  -0.00322073
  7732.68        1.09528        1.29172        1.11249        1.10893      -0.00700755  -0.00760767
  7733.44        1.08101        1.25564        1.0994        1.07403      -0.00943437   0.00411439
  7734.21        1.0808        1.22234        1.10038        1.04193      -0.000691969  -0.00134655
  7734.98        1.07995        1.19264        1.10071        1.0134      -0.0115013  -0.00990832
  7735.77        1.06285        1.16466        1.08484       0.986655      -0.0161589   0.00646577
  7736.54        1.05469        1.1408        1.07787       0.963972      -0.00139531   0.00673689
  7737.31        1.06071        1.11946        1.08507       0.943825      -0.00582447  -0.0127127
  7738.08        1.04573        1.10072        1.07128       0.92628      -0.0209601  -0.00759307
  7738.84        1.02853        1.08448        1.05527       0.911219      -0.0174798   0.00706089
  7739.62        1.01884        1.07041        1.04677       0.898337      -0.0101004   0.00153567
  7740.39        1.01294        1.05849        1.04206       0.887616      -0.0151088  -0.00732896
  7741.16       0.995499        1.04858        1.02582       0.8789      -0.0214237  -0.00593609
  7741.95       0.979431        1.04038        1.01097       0.871922      -0.0243928  -3.05445e-05
  7744.45       0.915222        1.02561       0.950626       0.861014      -0.0215242   0.00172297
  7746.97       0.871444        1.024       0.910738       0.863289      -0.0157486   0.00166441
  7749.45       0.836463        1.03055       0.879595       0.87368      -0.0132005   0.000931135
  7751.94       0.805891        1.04034       0.852858       0.887304      -0.0111246   0.00108109
  7754.45       0.780818        1.04987       0.831679       0.900732      -0.00779286   0.00202194
  7756.95       0.766817        1.05841       0.821532       0.913128      -0.000986626   0.00266557
  7759.43       0.775909        1.06606       0.834458       0.924604       0.00546838   0.0017546
  7761.95       0.794148        1.07296       0.856586       0.935401       0.00778287   0.00115638
  7764.47       0.815119        1.07906       0.881452       0.945388       0.0112942   0.000620831
  7766.97       0.850823        1.0843       0.921014       0.954491       0.0108982  -8.51084e-05
  7769.46       0.869545        1.08878       0.943595       0.962834       0.0108692   8.87912e-05
  7771.99       0.905408        1.09257       0.98336       0.970525       0.0113441  -0.00110956
  7774.49       0.92656        1.09561        1.00838       0.977429       0.00529254  -0.001835
  7777       0.931924        1.09798        1.01762       0.983669       0.00215075  -0.000699515
  7780.56       0.939624        1.1002        1.03083       0.991405       0.00104368  -0.000861423
  7784.15       0.939388        1.10117        1.03613       0.997917      -0.00401015  -0.000577944
  7787.69       0.911028        1.10095        1.01325        1.00318      -0.00307764   0.000642497
  7791.28       0.917435        1.09962        1.0252        1.00739       0.000572782   0.000218109
  7794.86       0.915134        1.09725        1.02843        1.01054      -0.00151402  -0.00054522
  7798.44       0.906604        1.09392        1.02543        1.01274      -0.00332772  -0.000283537
  7802.02       0.891331        1.0897        1.01568        1.01405      -0.00354216   3.60619e-06
  7805.61       0.881178        1.08464        1.01109        1.01455      -0.00330183   0.00017429
  7809.2       0.867594        1.07885        1.00305        1.01431      -0.00228919   0.000449331
  7812.81       0.864708        1.07238        1.00574        1.01341      -6.88951e-05  -7.57129e-05
  7816.38       0.867099        1.06539        1.01365        1.01194      -0.00283258  -0.000489452
  7819.99       0.844356        1.05782       0.996488        1.00995      -0.00358561   4.59265e-05
  7823.6       0.841197        1.04981       0.99891        1.00752      -0.00250081  -8.47431e-05
  7827.22       0.826277        1.04144       0.98958        1.00474      -0.00419822   2.38706e-05
  7830.81       0.810932        1.03286       0.979784        1.00171      -0.00232873   0.000682485
  7834.44       0.809475        1.024       0.983927       0.998454       0.00072591  -1.70113e-05
  7838.06       0.816192        1.01503       0.996241       0.995083      -0.00245199  -0.000331533
  7841.69       0.791694        1.00601       0.977351       0.991669      -0.00167837   0.000804977
  7845.32       0.804007       0.99703       0.995274       0.988297       0.00339215   0.00139684