File: Dynamic XAS/Dynamic XAS Energy analyzed data/ESweep_0_5 Hz/Same Eo/Normalized Spectra/Ir0_5Hz_ReaddMean_VPhsCorrect_16_219_mV_.csv.nor
# XDI/1.0 Athena/0.9.26
# Element.edge:                  K
# Element.symbol:                Co
# Column.1:                      energy eV
# Column.2:                      norm
# Column.3:                      nbkg
# Column.4:                      flat
# Column.5:                      fbkg
# Column.6:                      nder
# Column.7:                      nsec
# Athena.e0:                     7721.54
# Athena.eshift:                 0
# Athena.rbkg:                   1.0
# Athena.importance:             1
# Athena.standard:               None
# Athena.bkg_kweight:            3
# Athena.edge_step:              1.19581
# Athena.fixed_step:             no
# Athena.pre_edge_range:         -82.964 -19.904
# Athena.pre_edge_line:          0.280652 + 0.000178068 * E
# Athena.normalization_range:    45 125.256
# Athena.post_edge_polynomial:   15.7275 - 0.00166755 * E + 0 * E^2 + 0 * E^3
# Athena.spline_range_energy:    0.000 125.180
# Athena.clamps:                 0 24
# Athena.spline_range_k:         0.000 5.732
# Athena.kweight:                2
# Athena.window:                 hanning
# Athena.phase_correction:       no
# Athena.k_range:                .4 5.35
# Athena.dk:                     .5
# Athena.r_range:                .4 5.1
# Athena.dr:                     .5
# Athena.window:                 hanning
# Athena.plot_multiplier:        1
# Athena.y_offset:               0.2
# ///
#------------------------
#   e         norm        nbkg        flat        fbkg        nder        nsec
  7600.07      -0.214886      -0.0148859  -0.214886      -0.214886       0.0121021  -0.000502486
  7610.64      -0.0869187   0.113081      -0.0869187  -0.0869187   0.00678878  -0.000371659
  7624.56      -0.0486356   0.151364      -0.0486356  -0.0486356   0.00300049  -0.000205683
  7637.2      -0.00722862   0.192771      -0.00722862  -0.00722862   0.00132603  -0.000131707
  7649.7      -0.0152951   0.184705      -0.0152951  -0.0152951  -0.000311016   9.18808e-05
  7662.2      -0.0150037   0.184996      -0.0150037  -0.0150037   0.00362296   1.93946e-05
  7674.73       0.0754022   0.275402       0.0754022   0.0754022   0.000174508  -0.000275839
  7687.33      -0.010618   0.189382      -0.010618  -0.010618  -0.00330942   8.59666e-06
  7700.01      -0.00824998   0.19175      -0.00824998  -0.00824998   0.000391805   0.000890495
  7700.39      -0.00550219   0.194498      -0.00550219  -0.00550219   0.00831778   0.00571933
  7700.72      -0.00235268   0.197647      -0.00235268  -0.00235268   0.00444681  -0.0206663
  7701.07      -0.00246502   0.197535      -0.00246502  -0.00246502  -0.00579732  -0.00568859
  7701.43      -0.00649776   0.193502      -0.00649776  -0.00649776   0.00037947   0.0165211
  7701.8      -0.00218914   0.197811      -0.00218914  -0.00218914   0.00621353  -0.00528537
  7702.15      -0.0020178   0.197982      -0.0020178  -0.0020178  -0.00343128  -0.017584
  7702.52      -0.00464937   0.195351      -0.00464937  -0.00464937  -0.00639422   0.00196016
  7702.88      -0.00664722   0.193353      -0.00664722  -0.00664722  -0.00201213   0.00765376
  7703.24      -0.00611219   0.193888      -0.00611219  -0.00611219  -0.000829938   0.00697796
  7703.6      -0.00724561   0.192754      -0.00724561  -0.00724561   0.00301898   0.0126321
  7703.96      -0.00394154   0.196058      -0.00394154  -0.00394154   0.00825251   0.00165694
  7704.32      -0.00126253   0.198737      -0.00126253  -0.00126253   0.00422026  -0.0155168
  7704.69      -0.000877633   0.199122      -0.000877633  -0.000877633  -0.00301269  -0.0128769
  7705.02      -0.00335635   0.196644      -0.00335635  -0.00335635  -0.00472919   0.00655681
  7705.38      -0.00415969   0.19584      -0.00415969  -0.00415969   0.00153774   0.0289989
  7705.75      -0.00223534   0.197765      -0.00223534  -0.00223534   0.016411   0.0304215
  7706.11       0.00783677   0.207837       0.00783677   0.00783677   0.0237759   0.0170956
  7706.47       0.0149308   0.214931       0.0149308   0.0149308   0.028754   0.011695
  7706.83       0.0285109   0.228511       0.0285109   0.0285109   0.0321846  -0.00479576
  7707.2       0.0382646   0.238265       0.0382646   0.0382646   0.0252771  -0.0196234
  7707.56       0.0468621   0.246862       0.0468621   0.0468621   0.017938  -0.024552
  7707.91       0.0511621   0.251162       0.0511621   0.0511621   0.0076242  -0.0195935
  7708.28       0.0523744   0.252374       0.0523744   0.0523744   0.00377188  -0.0118849
  7708.65       0.0539193   0.253919       0.0539193   0.0539193  -0.00106366  -0.0149499
  7708.98       0.0516277   0.251628       0.0516277   0.0516277  -0.00672293   0.00627395
  7709.29       0.0495897   0.24959       0.0495897   0.0495897   0.00297676   0.022321
  7709.6       0.0534554   0.253455       0.0534554   0.0534554   0.00698219  -0.0138272
  7709.9       0.0538698   0.25387       0.0538698   0.0538698  -0.0054993  -0.0360644
  7710.21       0.0500734   0.250073       0.0500734   0.0500734  -0.0151974  -0.00922151
  7710.51       0.0445842   0.244584       0.0445842   0.0445842  -0.0111336   0.0213865
  7710.82       0.0432596   0.24326       0.0432596   0.0432596  -0.00210886   0.0328697
  7711.11       0.0433316   0.243332       0.0433316   0.0433316   0.00839099   0.00917722
  7711.42       0.0482354   0.248235       0.0482354   0.0482354   0.00333323  -0.0245869
  7711.73       0.0453882   0.245388       0.0453882   0.0453882  -0.00677914  -0.0130664
  7712.03       0.0440798   0.24408       0.0440798   0.0440798  -0.00467646  -0.00523722
  7712.33       0.0425449   0.242545       0.0425449   0.0425449  -0.00996336   0.0164564
  7712.64       0.0379524   0.237952       0.0379524   0.0379524   0.00544419   0.0429836
  7712.95       0.0459203   0.24592       0.0459203   0.0459203   0.0166865   0.0252459
  7713.23       0.0478141   0.247814       0.0478141   0.0478141   0.0203645   0.0419629
  7713.54       0.0578335   0.257834       0.0578335   0.0578335   0.0412348   0.0646691
  7713.85       0.0732971   0.273297       0.0732971   0.0732971   0.06033   0.0506263
  7714.16       0.0954191   0.295419       0.0954191   0.0954191   0.0727749   0.0118957
  7714.47       0.118199       0.318199       0.118199       0.118199       0.0676697  -0.0360405
  7714.78       0.137104       0.337104       0.137104       0.137104       0.050574  -0.0545633
  7715.08       0.148898       0.348898       0.148898       0.148898       0.0345498  -0.012743
  7715.39       0.158144       0.358144       0.158144       0.158144       0.0428135   0.0221717
  7715.67       0.174286       0.374286       0.174286       0.174286       0.0476976  -0.0265763
  7715.97       0.186095       0.386095       0.186095       0.186095       0.0272398  -0.0770869
  7716.14       0.187007       0.387007       0.187007       0.187007       0.011698   0.0342115
  7716.26       0.189406       0.389406       0.189406       0.189406       0.0369217   0.19272
  7716.37       0.195499       0.395499       0.195499       0.195499       0.0560236   0.0795171
  7716.5       0.203076       0.403076       0.203076       0.203076       0.0563239   0.0297503
  7716.62       0.209749       0.409749       0.209749       0.209749       0.0635504  -0.0521877
  7716.73       0.217946       0.417946       0.217946       0.217946       0.0441119  -0.121647
  7716.87       0.220645       0.420645       0.220645       0.220645       0.0335036  -0.0206358
  7716.99       0.22649       0.42649       0.22649       0.22649       0.0388498   0.00824657
  7717.1       0.229736       0.429736       0.229736       0.229736       0.0354333   0.0673402
  7717.23       0.235171       0.435171       0.235171       0.235171       0.0553482   0.230806
  7717.35       0.243517       0.443517       0.243517       0.243517       0.0929041   0.00068522
  7717.46       0.256446       0.456446       0.256446       0.256446       0.0555051  -0.223554
  7717.59       0.256949       0.456949       0.256949       0.256949       0.038804   0.116848
  7717.71       0.266069       0.466069       0.266069       0.266069       0.0844833   0.171773
  7717.84       0.27807       0.47807       0.27807       0.27807       0.0817474  -0.0586431
  7717.96       0.286506       0.486506       0.286506       0.286506       0.0698225   0.106709
  7718.07       0.294269       0.494269       0.294269       0.294269       0.106504       0.147985
  7718.21       0.312706       0.512706       0.312706       0.312706       0.106227      -0.168708
  7718.33       0.321251       0.521251       0.321251       0.321251       0.0636519  -0.0594911
  7718.44       0.327664       0.527664       0.327664       0.327664       0.0922464   0.173816
  7718.57       0.343851       0.543851       0.343851       0.343851       0.106237      -0.0980004
  7718.69       0.354436       0.554436       0.354436       0.354436       0.0675503  -0.0796015
  7718.81       0.359523       0.559523       0.359523       0.359523       0.0877694   0.328503
  7718.94       0.375764       0.575764       0.375764       0.375764       0.147376       0.300149
  7719.06       0.396514       0.596514       0.396514       0.396514       0.163107      -0.104041
  7719.17       0.413605       0.613605       0.413605       0.413605       0.123239      -0.281974
  7719.3       0.426461       0.626461       0.426461       0.426461       0.0945871   0.0804044
  7719.42       0.437441       0.637441       0.437441       0.437441       0.143501       0.216027
  7719.53       0.460328       0.660328       0.460328       0.460328       0.145569      -0.07684
  7719.67       0.473251       0.673251       0.473251       0.473251       0.124598       0.072996
  7719.79       0.491851       0.691851       0.491851       0.491851       0.164037       0.297394
  7719.9       0.5118       0.7118       0.5118       0.5118       0.194486       0.055583
  7720.03       0.539694       0.739694       0.539694       0.539694       0.177711       0.069676
  7720.15       0.55676       0.75676       0.55676       0.55676       0.212114       0.0832871
  7720.27       0.589117       0.789117       0.589117       0.589117       0.197117      -0.306794
  7720.4       0.60466       0.80466       0.60466       0.60466       0.137563      -0.135513
  7720.52       0.62337       0.82337       0.62337       0.62337       0.163374       0.216183
  7720.65       0.64534       0.84534       0.64534       0.64534       0.191392       0.295061
  7720.77       0.671218       0.871218       0.671218       0.671218       0.237139       0.107458
  7720.88       0.700593       0.900593       0.700593       0.700593       0.21643      -0.143712
  7721.01       0.724676       0.924676       0.724676       0.724676       0.201642      -0.0676138
  7721.13       0.75181       0.95181       0.75181       0.75181       0.199256       0.0510784
  7721.25       0.771103       0.971103       0.771103       0.771103       0.213544       0.183601
  7721.38       0.804342        1.00434       0.804342       0.804342       0.244422       0.210374
  7721.5       0.833186        1.03319       0.833125       0.833125       0.266979      -0.0145365
  7721.61       0.866548        2.27355       0.866659        2.07366       0.241035      -0.185216
  7721.74       0.891999        2.25597       0.892314        2.05629       0.221786       0.14416
  7721.86       0.921995        2.2404       0.922492        2.0409       0.277075      -0.0405362
  7721.97       0.955726        2.22574       0.956396        2.02641       0.212463      -0.527983
  7722.1       0.973411        2.20887       0.974281        2.00974       0.149303       0.0481915
  7722.23       0.993351        2.19318       0.994409        1.99424       0.224607       0.2989
  7722.36        1.03046        2.17636        1.03172        1.97762       0.225224      -0.170341
  7722.48        1.05033        2.16107        1.05178        1.96252       0.181511      -0.20518
  7722.59        1.07312        2.1468        1.07474        1.94842       0.177007      -0.214573
  7722.72        1.0937        2.13053        1.09553        1.93236       0.12894      -0.213867
  7722.85        1.10574        2.11553        1.10775        1.91754       0.122898       0.174708
  7722.96        1.12246        2.10187        1.12465        1.90406       0.169822       0.257214
  7723.05        1.14055        2.09061        1.14288        1.89294       0.175627      -0.111458
  7723.21        1.16724        2.07119        1.16982        1.87377       0.1414      -0.133603
  7723.41        1.19075        2.04835        1.19363        1.85123       0.128198      -0.0252854
  7723.6        1.21724        2.02537        1.22042        1.82855       0.131539      -0.0540519
  7723.8        1.24257        2.00273        1.24606        1.80622       0.106902      -0.14491
  7724        1.25968        1.98009        1.26348        1.78388       0.0740095  -0.184926
  7724.2        1.27203        1.95801        1.27613        1.76211       0.0333009  -0.154836
  7724.4        1.27287        1.93627        1.27727        1.74067       0.0126944  -0.0511897
  7724.59        1.27703        1.91507        1.28174        1.71978       0.0131322  -0.0509724
  7724.79        1.27803        1.89409        1.28304        1.6991      -0.00733781  -0.112877
  7725.01        1.27398        1.87114        1.27933        1.6765      -0.0338246  -0.0391197
  7725.72        1.24644        1.79897        1.25289        1.60543      -0.0438756  -0.00969119
  7726.51        1.20821        1.72455        1.21588        1.53222      -0.0483517   0.00111107
  7727.3        1.17009        1.65397        1.17898        1.46286      -0.0421212   0.00496182
  7728.07        1.14254        1.59063        1.15261        1.4007      -0.0406162   0.0082867
  7728.83        1.10803        1.53154        1.11928        1.3428      -0.0294592   0.0211618
  7729.59        1.09756        1.47664        1.10999        1.28907      -0.00830208   0.0173602
  7730.35        1.09538        1.4259        1.10898        1.2395      -0.00301963   0.0044123
  7731.15        1.09287        1.37694        1.10769        1.19176      -0.00144537   0.00398923
  7731.91        1.09313        1.33364        1.10914        1.14964       0.0031916  -0.00437215
  7732.68        1.09776        1.29358        1.11495        1.11077      -0.0081435  -0.00792967
  7733.44        1.08066        1.25729        1.09903        1.07566      -0.00894872   0.00497261
  7734.21        1.08402        1.22379        1.10358        1.04335      -0.000510546  -0.00289486
  7734.98        1.07988        1.1939        1.10062        1.01463      -0.0133923  -0.00992593
  7735.77        1.06311        1.16574        1.08508       0.987706      -0.0160049   0.00756797
  7736.54        1.05486        1.14171        1.07801       0.964858      -0.00156359   0.0068587
  7737.31        1.06072        1.12022        1.08505       0.944554      -0.00548369  -0.0119314
  7738.08        1.04643        1.10134        1.07195       0.926863      -0.019926  -0.00773219
  7738.84        1.03013        1.08496        1.05684       0.911668      -0.0173526   0.00637345
  7739.62        1.01974        1.07076        1.04764       0.898659      -0.0101236   0.00147252
  7740.39        1.0145        1.05873        1.04359       0.887821      -0.015079  -0.00749512
  7741.16       0.99644        1.04871        1.02672       0.878996      -0.0217036  -0.00564692
  7741.95       0.980554        1.04041        1.01206       0.871915      -0.0239108  -6.33459e-05
  7744.45       0.917749        1.02537       0.953112       0.860736      -0.021912   0.00147842
  7746.97       0.870621        1.02356       0.909868       0.862808      -0.0164936   0.00178238
  7749.45       0.835265        1.02998       0.878346       0.873056      -0.0129984   0.001073
  7751.94       0.806071        1.03967       0.852983       0.886578      -0.0111651   0.000979793
  7754.45       0.779417        1.04913       0.830218       0.899934      -0.00809745   0.00209593
  7756.95       0.765471        1.05764       0.820121       0.912288      -0.000656096   0.00269697
  7759.43       0.776153        1.06527       0.834633       0.923747       0.00532   0.00157556
  7761.95       0.79206        1.07219       0.854424       0.934551       0.00721855   0.0011617
  7764.47       0.81252        1.07831       0.878775       0.944567       0.0111727   0.000820774
  7766.97       0.848124        1.08361       0.918233       0.953717       0.0113372   8.0354e-05
  7769.46       0.869138        1.08816       0.943101       0.962124       0.011574  -9.51619e-06
  7771.99       0.906249        1.09203       0.984109       0.969895       0.0112894  -0.00121196
  7774.49       0.925879        1.09517        1.0076       0.976891       0.00548264  -0.00182127
  7777       0.933717        1.09764        1.01931       0.983233       0.00216484  -0.000756496
  7780.56       0.939028        1.10003        1.03012       0.991126       0.000887687  -0.000861193
  7784.15       0.940066        1.10118        1.0367       0.997807      -0.00399441  -0.000584114
  7787.69       0.910544        1.10113        1.01264        1.00323      -0.00327763   0.000676783
  7791.28       0.916686        1.09997        1.02433        1.00761       0.000833079   0.000280161
  7794.86       0.916516        1.09776        1.02968        1.01093      -0.00126916  -0.000600884
  7798.44       0.907607        1.09458        1.02629        1.01326      -0.00346565  -0.000291697
  7802.02       0.891726        1.09048        1.01593        1.01468      -0.00335567   2.21939e-05
  7805.61       0.88352        1.08551        1.01328        1.01527      -0.00330634   0.000104243
  7809.2       0.867957        1.07978        1.00326        1.01508      -0.00260626   0.000488886
  7812.81       0.864768        1.07332        1.00563        1.01419       0.000211199  -1.99175e-05
  7816.38       0.869473        1.06629        1.01585        1.01267      -0.00274921  -0.000576284
  7819.99       0.845015        1.05862       0.996968        1.01057      -0.0039294   4.93685e-06
  7823.6       0.841087        1.05045       0.998614        1.00798      -0.00271355  -6.13372e-05
  7827.22       0.825398        1.04184       0.988509        1.00495      -0.0043728   8.45459e-05
  7830.81       0.809563        1.03295       0.978217        1.0016      -0.00210405   0.000720176
  7834.44       0.810218        1.0237       0.984464       0.997943       0.000823266  -5.0647e-05
  7838.06       0.815529        1.01424       0.995365       0.994075      -0.00247104  -0.000351004
  7841.69       0.792298        1.00462       0.977737       0.990061      -0.00172222   0.000747428
  7845.32       0.803025       0.994942       0.994067       0.985984       0.00295528   0.00128857