File: Dynamic XAS/Dynamic XAS Energy analyzed data/ESweep_0_5 Hz/Same Eo/Normalized Spectra/Ir0_5Hz_ReaddMean_VPhsCorrect_10_242_mV_.csv.nor
# XDI/1.0 Athena/0.9.26
# Element.edge:                  K
# Element.symbol:                Co
# Column.1:                      energy eV
# Column.2:                      norm
# Column.3:                      nbkg
# Column.4:                      flat
# Column.5:                      fbkg
# Column.6:                      nder
# Column.7:                      nsec
# Athena.e0:                     7721.54
# Athena.eshift:                 0
# Athena.rbkg:                   1.0
# Athena.importance:             1
# Athena.standard:               None
# Athena.bkg_kweight:            3
# Athena.edge_step:              1.19539
# Athena.fixed_step:             no
# Athena.pre_edge_range:         -82.964 -19.904
# Athena.pre_edge_line:          0.238824 + 0.00018355 * E
# Athena.normalization_range:    45 125.256
# Athena.post_edge_polynomial:   15.73 - 0.00166787 * E + 0 * E^2 + 0 * E^3
# Athena.spline_range_energy:    0.000 125.180
# Athena.clamps:                 0 24
# Athena.spline_range_k:         0.000 5.732
# Athena.kweight:                2
# Athena.window:                 hanning
# Athena.phase_correction:       no
# Athena.k_range:                .4 5.35
# Athena.dk:                     .5
# Athena.r_range:                .4 5.1
# Athena.dr:                     .5
# Athena.window:                 hanning
# Athena.plot_multiplier:        1
# Athena.y_offset:               0.2
# ///
#------------------------
#   e         norm        nbkg        flat        fbkg        nder        nsec
  7600.07      -0.214386      -0.0143855  -0.214385      -0.214385       0.0121008  -0.000504628
  7610.64      -0.0864321   0.113568      -0.0864321  -0.0864321   0.00676482  -0.000373047
  7624.56      -0.0487219   0.151278      -0.0487219  -0.0487219   0.00296519  -0.000203637
  7637.2      -0.00767953   0.19232      -0.00767953  -0.00767953   0.00135643  -0.000130903
  7649.7      -0.0146173   0.185383      -0.0146173  -0.0146173  -0.000326099   9.21543e-05
  7662.2      -0.0158317   0.184168      -0.0158317  -0.0158317   0.00366019   1.96478e-05
  7674.73       0.0770119   0.277012       0.0770119   0.0770119   0.000165765  -0.000281135
  7687.33      -0.0116657   0.188334      -0.0116657  -0.0116657  -0.0034053   1.15756e-05
  7700.01      -0.0090639   0.190936      -0.0090639  -0.0090639   0.000458361   0.000972221
  7700.39      -0.00568085   0.194319      -0.00568085  -0.00568085   0.00928898   0.0057978
  7700.72      -0.00247802   0.197522      -0.00247801  -0.00247801   0.004569  -0.0212361
  7701.07      -0.00256022   0.19744      -0.00256022  -0.00256022  -0.00521529  -0.0038268
  7701.43      -0.00620695   0.193793      -0.00620695  -0.00620695   0.00183284   0.0161236
  7701.8      -0.00122775   0.198772      -0.00122775  -0.00122775   0.00650659  -0.00895664
  7702.15      -0.00151569   0.198484      -0.00151569  -0.00151569  -0.0046249  -0.0176094
  7702.52      -0.0045438   0.195456      -0.0045438  -0.0045438  -0.00611933   0.00227924
  7702.88      -0.00594609   0.194054      -0.00594609  -0.00594609  -0.00297473   0.00592436
  7703.24      -0.00670643   0.193294      -0.00670643  -0.00670643  -0.00181232   0.00942942
  7703.6      -0.00725277   0.192747      -0.00725277  -0.00725277   0.00382388   0.0149987
  7703.96      -0.00395706   0.196043      -0.00395706  -0.00395706   0.00897176   0.000169515
  7704.32      -0.000748242   0.199252      -0.000748242  -0.000748242   0.00394678  -0.0159122
  7704.69      -0.0010917   0.198908      -0.0010917  -0.0010917  -0.00258049  -0.0128563
  7705.02      -0.00254168   0.197458      -0.00254168  -0.00254168  -0.00498835   0.00182281
  7705.38      -0.00455361   0.195446      -0.00455361  -0.00455361  -0.00131546   0.0300571
  7705.75      -0.00350066   0.196499      -0.00350066  -0.00350066   0.0169233   0.0366719
  7706.11       0.00781729   0.207817       0.00781729   0.00781729   0.0254917   0.015867
  7706.47       0.0149043   0.214904       0.0149043   0.0149043   0.0283793   0.0100478
  7706.83       0.028222   0.228222       0.028222   0.028222   0.0327161  -0.0022989
  7707.2       0.0386235   0.238623       0.0386235   0.0386235   0.0267126  -0.02123
  7707.56       0.0476153   0.247615       0.0476153   0.0476153   0.017303  -0.0300307
  7707.91       0.0510644   0.251064       0.0510644   0.0510644   0.00512051  -0.0184999
  7708.28       0.0513174   0.251317       0.0513174   0.0513174   0.00392764  -0.00845062
  7708.65       0.0539355   0.253935       0.0539355   0.0539355  -0.0010569  -0.0165337
  7708.98       0.0505755   0.250575       0.0505755   0.0505755  -0.00767905   0.00638559
  7709.29       0.0489902   0.24899       0.0489902   0.0489902   0.00305542   0.0241924
  7709.6       0.0524515   0.252452       0.0524515   0.0524515   0.00717508  -0.012882
  7709.9       0.0533885   0.253388       0.0533885   0.0533885  -0.00484126  -0.0346048
  7710.21       0.0494741   0.249474       0.0494741   0.0494741  -0.0141068  -0.00592046
  7710.51       0.0447692   0.244769       0.0447692   0.0447692  -0.00845867   0.0166917
  7710.82       0.0442974   0.244297       0.0442974   0.0442974  -0.00389153   0.0265626
  7711.11       0.0424576   0.242458       0.0424576   0.0424576   0.00731952   0.0167607
  7711.42       0.0486379   0.248638       0.0486379   0.0486379   0.00604758  -0.0198003
  7711.73       0.046189   0.246189       0.046189   0.046189  -0.00489725  -0.012409
  7712.03       0.0456359   0.245636       0.0456359   0.0456359  -0.00155911  -0.00999008
  7712.33       0.0452411   0.245241       0.045241   0.045241  -0.0109712   0.00900196
  7712.64       0.0388886   0.238889       0.0388886   0.0388886   0.0039771   0.048179
  7712.95       0.0477069   0.247707       0.0477069   0.0477069   0.0188998   0.0324403
  7713.23       0.0500584   0.250058       0.0500584   0.0500584   0.0231493   0.0405276
  7713.54       0.0612492   0.261249       0.0612492   0.0612492   0.0426084   0.0614779
  7713.85       0.0763903   0.27639       0.0763903   0.0763903   0.0611426   0.0501573
  7714.16       0.099341   0.299341       0.099341   0.099341   0.0738564   0.00553917
  7714.47       0.12196       0.32196       0.12196       0.12196       0.0645603  -0.0425609
  7714.78       0.13911       0.33911       0.13911       0.13911       0.0476388  -0.0421055
  7715.08       0.150876       0.350876       0.150876       0.150876       0.0390023  -0.00173111
  7715.39       0.162863       0.362863       0.162863       0.162863       0.0465846   0.00197727
  7715.67       0.178501       0.378501       0.178501       0.178501       0.0401748  -0.0328127
  7715.97       0.186405       0.386405       0.186405       0.186405       0.0273563  -0.0331956
  7716.14       0.191277       0.391277       0.191277       0.191277       0.0246725  -0.0101664
  7716.26       0.193387       0.393387       0.193387       0.193387       0.0244793   0.107763
  7716.37       0.196907       0.396907       0.196907       0.196907       0.049458   0.181119
  7716.5       0.205455       0.405455       0.205455       0.205455       0.0686722   0.0310105
  7716.62       0.214281       0.414281       0.214281       0.214281       0.0573037  -0.0735859
  7716.73       0.218864       0.418864       0.218864       0.218864       0.0514531  -0.0110835
  7716.87       0.22699       0.42699       0.22699       0.22699       0.0545661  -0.0456281
  7716.99       0.232779       0.432779       0.232779       0.232779       0.0398179  -0.0481736
  7717.1       0.236307       0.436307       0.236307       0.236307       0.0432935   0.0526426
  7717.23       0.243385       0.443385       0.243385       0.243385       0.0527154   0.137096
  7717.35       0.249433       0.449433       0.249433       0.249433       0.0774303   0.0410602
  7717.46       0.261117       0.461117       0.261117       0.261117       0.0621182  -0.201353
  7717.59       0.264466       0.464466       0.264466       0.264466       0.0287029   0.109449
  7717.71       0.268235       0.468235       0.268235       0.268235       0.0892615   0.324532
  7717.84       0.286781       0.486781       0.286781       0.286781       0.109836      -0.0837013
  7717.96       0.295694       0.495694       0.295694       0.295694       0.0683361  -0.0531878
  7718.07       0.302635       0.502635       0.302635       0.302635       0.0974962   0.180252
  7718.21       0.319678       0.519678       0.319678       0.319678       0.112678      -0.0856891
  7718.33       0.331256       0.531256       0.331256       0.331256       0.0757312  -0.240676
  7718.44       0.337475       0.537475       0.337475       0.337475       0.0561193   0.0409748
  7718.57       0.345005       0.545005       0.345005       0.345005       0.08577   0.204596
  7718.69       0.359089       0.559089       0.359089       0.359089       0.107677       0.0938144
  7718.81       0.369986       0.569986       0.369986       0.369986       0.107535       0.0454065
  7718.94       0.38522       0.58522       0.38522       0.38522       0.118711       0.191076
  7719.06       0.399782       0.599782       0.399782       0.399782       0.155495       0.0373012
  7719.17       0.421295       0.621295       0.421295       0.421295       0.127365      -0.229628
  7719.3       0.430732       0.630732       0.430732       0.430732       0.0996955   0.178874
  7719.42       0.446418       0.646418       0.446418       0.446418       0.172441       0.229995
  7719.53       0.471428       0.671428       0.471428       0.471428       0.153974      -0.212131
  7719.67       0.484296       0.684296       0.484296       0.484296       0.120257       0.07532
  7719.79       0.501853       0.701853       0.501853       0.501853       0.17303       0.235827
  7719.9       0.524958       0.724958       0.524958       0.524958       0.175677      -0.0190556
  7720.03       0.54507       0.74507       0.54507       0.54507       0.168343       0.19374
  7720.15       0.567549       0.767549       0.567549       0.567549       0.224693       0.154818
  7720.27       0.597423       0.797423       0.597423       0.597423       0.204415      -0.330016
  7720.4       0.617222       0.817222       0.617222       0.617222       0.144499      -0.180938
  7720.52       0.633404       0.833404       0.633404       0.633404       0.159362       0.120708
  7720.65       0.656903       0.856903       0.656903       0.656903       0.174556       0.271728
  7720.77       0.677043       0.877043       0.677043       0.677043       0.227294       0.285952
  7720.88       0.709862       0.909862       0.709862       0.709862       0.241182      -0.132446
  7721.01       0.736615       0.936615       0.736615       0.736615       0.19458      -0.181121
  7721.13       0.759285       0.959285       0.759285       0.759285       0.195178       0.00648494
  7721.25       0.782091       0.982091       0.782091       0.782091       0.196091       0.0669751
  7721.38       0.807524        1.00752       0.807524       0.807524       0.211653       0.279259
  7721.5       0.835851        1.03585       0.835789       0.835789       0.267022       0.217954
  7721.61       0.86974        2.2664       0.869852        2.06651       0.262437      -0.112392
  7721.74       0.899886        2.24892       0.900201        2.04923       0.239599      -0.0334732
  7721.86       0.92964        2.23342       0.930138        2.03392       0.254068      -0.130418
  7721.97       0.958321        2.21883       0.958993        2.0195       0.209603      -0.342376
  7722.1       0.980364        2.20204       0.981237        2.00291       0.171213      -0.036816
  7722.23        1.00147        2.18642        1.00253        1.98749       0.200325       0.185355
  7722.36        1.03125        2.16968        1.03251        1.97095       0.218294      -0.0196102
  7722.48        1.0567        2.15447        1.05815        1.95592       0.195364      -0.285656
  7722.59        1.07716        2.14026        1.07879        1.94189       0.151164      -0.346114
  7722.72        1.09373        2.12408        1.09556        1.92591       0.110566      -0.0902269
  7722.85        1.10513        2.10914        1.10715        1.91117       0.128337       0.286368
  7722.96        1.12376        2.09555        1.12596        1.89775       0.177576       0.203859
  7723.05        1.14153        2.08435        1.14387        1.88669       0.170128      -0.193688
  7723.21        1.16714        2.06501        1.16974        1.86761       0.128185      -0.130513
  7723.41        1.18704        2.04228        1.18993        1.84517       0.123796       0.000355116
  7723.6        1.21542        2.01942        1.21862        1.82261       0.128324      -0.053422
  7723.8        1.2376        1.99689        1.2411        1.80039       0.102748      -0.141537
  7724        1.25622        1.97436        1.26003        1.77817       0.0721335  -0.186624
  7724.2        1.26631        1.95239        1.27042        1.7565       0.0284714  -0.147468
  7724.4        1.26749        1.93075        1.27191        1.73517       0.013736  -0.048596
  7724.59        1.27172        1.90966        1.27645        1.71438       0.00932462  -0.0580469
  7724.79        1.27115        1.88878        1.27619        1.69381      -0.00907641  -0.0997265
  7725.01        1.26794        1.86595        1.27331        1.67132      -0.0321616  -0.0354349
  7725.72        1.24112        1.79413        1.24759        1.60061      -0.0421726  -0.00947587
  7726.51        1.20473        1.72008        1.21242        1.52777      -0.0463659   0.000810666
  7727.3        1.1679        1.64985        1.17683        1.45878      -0.0408926   0.00409827
  7728.07        1.14098        1.58684        1.15108        1.39694      -0.0399767   0.00734536
  7728.83        1.10682        1.52805        1.11811        1.33935      -0.0296689   0.020806
  7729.59        1.09567        1.47344        1.10814        1.28591      -0.00820601   0.01734
  7730.35        1.09432        1.42296        1.10797        1.23661      -0.00326006   0.00400771
  7731.15        1.09061        1.37426        1.10548        1.18914      -0.00197803   0.00489542
  7731.91        1.09124        1.3312        1.1073        1.14726       0.0043621  -0.00281242
  7732.68        1.09729        1.29136        1.11454        1.10861      -0.00628665  -0.00939367
  7733.44        1.08162        1.25527        1.10005        1.0737      -0.0100196   0.00251442
  7734.21        1.08191        1.22196        1.10154        1.04159      -0.00242701  -0.00198238
  7734.98        1.07789        1.19225        1.0987        1.01306      -0.0130626  -0.00861818
  7735.77        1.06152        1.16426        1.08356       0.986302      -0.01588   0.00828328
  7736.54        1.05307        1.14038        1.0763       0.963607      -0.000115794   0.0073144
  7737.31        1.06134        1.11902        1.08576       0.943446      -0.00465971  -0.0138348
  7738.08        1.0459        1.10027        1.07151       0.925886      -0.0214076  -0.00855419
  7738.84        1.02848        1.08401        1.05528       0.910809      -0.0177904   0.00729848
  7739.62        1.01854        1.06991        1.04653       0.897909      -0.0101825   0.00249631
  7740.39        1.01276        1.05798        1.04195       0.887169      -0.0139361  -0.00750063
  7741.16       0.997007        1.04805        1.0274       0.878435      -0.021771  -0.00702957
  7741.95       0.978707        1.03982        1.01032       0.871436      -0.0249303   4.94085e-05
  7744.45       0.914961        1.02498       0.950447       0.860461      -0.0216084   0.00177124
  7746.97       0.870298        1.02329       0.909682       0.86267      -0.016044   0.00171731
  7749.45       0.834725        1.02977       0.877957       0.873003      -0.0130201   0.00101736
  7751.94       0.80564        1.03951       0.852716       0.886581      -0.0109918   0.0010115
  7754.45       0.779744        1.049       0.830723       0.899979      -0.00796058   0.00198212
  7756.95       0.765726        1.05752       0.820567       0.912363      -0.00105345   0.00265168
  7759.43       0.774503        1.06516       0.833187       0.923841       0.00523154   0.00175919
  7761.95       0.791873        1.07207       0.854455       0.934653       0.007739   0.00121765
  7764.47       0.813492        1.07818       0.879979       0.944668       0.0113661   0.000700333
  7766.97       0.848908        1.08346       0.919262       0.953809       0.0112533   6.83732e-05
  7769.46       0.869691        1.08798       0.943913       0.9622       0.0117075  -3.73742e-05
  7771.99       0.907703        1.09181       0.985835       0.969947       0.0110656  -0.00134964
  7774.49       0.925307        1.09491        1.00731       0.976914       0.00492423  -0.00175378
  7777       0.932373        1.09733        1.01826       0.983222       0.00227913  -0.000628613
  7780.56       0.93915        1.09965        1.03056       0.991061       0.00110604  -0.000892001
  7784.15       0.940284        1.10071        1.03725       0.997682      -0.00410046  -0.000625192
  7787.69       0.90991        1.10059        1.01237        1.00305      -0.00335221   0.000644926
  7791.28       0.916372        1.09935        1.02439        1.00736       0.000499795   0.000281818
  7794.86       0.913493        1.09706        1.02705        1.01062      -0.00133185  -0.000474591
  7798.44       0.906844        1.0938        1.02594        1.0129      -0.00289543  -0.000306506
  7802.02       0.892782        1.08964        1.01742        1.01428      -0.00352429  -0.000103077
  7805.61       0.881547        1.08462        1.01176        1.01483      -0.00363532   0.000145319
  7809.2       0.866648        1.07885        1.00242        1.01462      -0.00247959   0.000518363
  7812.81       0.863706        1.07237        1.00506        1.01372       9.43045e-05  -4.95917e-05
  7816.38       0.867325        1.06533        1.01421        1.01222      -0.00283551  -0.000529849
  7819.99       0.843333        1.05768       0.995818        1.01016      -0.00371266   4.77802e-05
  7823.6       0.840504        1.04955       0.998582        1.00763      -0.00249035  -8.96159e-05
  7827.22       0.82533        1.04102       0.989012        1.0047      -0.00436049   8.72763e-05
  7830.81       0.809069        1.03223       0.978312        1.00147      -0.00186117   0.000735137
  7834.44       0.811902        1.02311       0.986758       0.997963       0.000943515  -0.000124927
  7838.06       0.815906        1.01382       0.996372       0.994285      -0.00276639  -0.000385146
  7841.69       0.79184        1.00441       0.977928       0.990502      -0.00184956   0.000784715
  7845.32       0.802478       0.994988       0.994188       0.986697       0.00293064   0.00131686