File: Dynamic XAS/Dynamic XAS Energy analyzed data/ESweep_0_5 Hz/Same Eo/Normalized Spectra/Ir0_5Hz_ReaddMean_VPhsCorrect_28_-106_mV_.csv.nor
# XDI/1.0 Athena/0.9.26
# Element.edge:                  K
# Element.symbol:                Co
# Column.1:                      energy eV
# Column.2:                      norm
# Column.3:                      nbkg
# Column.4:                      flat
# Column.5:                      fbkg
# Column.6:                      nder
# Column.7:                      nsec
# Athena.e0:                     7721.54
# Athena.eshift:                 0
# Athena.rbkg:                   1.0
# Athena.importance:             1
# Athena.standard:               None
# Athena.bkg_kweight:            3
# Athena.edge_step:              1.195
# Athena.fixed_step:             no
# Athena.pre_edge_range:         -82.964 -19.904
# Athena.pre_edge_line:          0.203303 + 0.000188169 * E
# Athena.normalization_range:    45 125.256
# Athena.post_edge_polynomial:   15.7178 - 0.00166632 * E + 0 * E^2 + 0 * E^3
# Athena.spline_range_energy:    0.000 125.180
# Athena.clamps:                 0 24
# Athena.spline_range_k:         0.000 5.732
# Athena.kweight:                2
# Athena.window:                 hanning
# Athena.phase_correction:       no
# Athena.k_range:                .4 5.35
# Athena.dk:                     .5
# Athena.r_range:                .4 5.1
# Athena.dr:                     .5
# Athena.window:                 hanning
# Athena.plot_multiplier:        1
# Athena.y_offset:               0.2
# ///
#------------------------
#   e         norm        nbkg        flat        fbkg        nder        nsec
  7600.07      -0.213616      -0.0136162  -0.213616      -0.213616       0.0120395  -0.000495005
  7610.64      -0.0863107   0.113689      -0.0863107  -0.0863107   0.0068053  -0.00037057
  7624.56      -0.0469612   0.153039      -0.0469612  -0.0469612   0.00296461  -0.000207772
  7637.2      -0.00757366   0.192426      -0.00757366  -0.00757366   0.00128709  -0.000131896
  7649.7      -0.0145999   0.1854      -0.0145999  -0.0145999  -0.000351646   9.49942e-05
  7662.2      -0.0163645   0.183636      -0.0163645  -0.0163645   0.00366185   2.27668e-05
  7674.73       0.0770708   0.277071       0.0770708   0.0770708   0.000218298  -0.000280475
  7687.33      -0.0108782   0.189122      -0.0108782  -0.0108782  -0.00338705   6.67916e-06
  7700.01      -0.00854358   0.191456      -0.00854358  -0.00854358   0.000387127   0.000917936
  7700.39      -0.00582349   0.194177      -0.00582349  -0.00582349   0.00859845   0.00537932
  7700.72      -0.00244728   0.197553      -0.00244728  -0.00244728   0.00420106  -0.020896
  7701.07      -0.00295416   0.197046      -0.00295416  -0.00295416  -0.00567352  -0.00285131
  7701.43      -0.00650385   0.193496      -0.00650385  -0.00650385   0.00216238   0.0177403
  7701.8      -0.00138211   0.198618      -0.00138211  -0.00138211   0.00722366  -0.00843173
  7702.15      -0.0012956   0.198704      -0.0012956  -0.0012956  -0.0039169  -0.0189008
  7702.52      -0.00419053   0.195809      -0.00419053  -0.00419053  -0.00632821   0.000868314
  7702.88      -0.00587722   0.194123      -0.00587722  -0.00587722  -0.00328824   0.00624071
  7703.24      -0.00658109   0.193419      -0.00658108  -0.00658108  -0.00179121   0.0116509
  7703.6      -0.00716868   0.192831      -0.00716868  -0.00716868   0.00511206   0.0151048
  7703.96      -0.00290552   0.197094      -0.00290552  -0.00290552   0.00906911  -0.00321196
  7704.32      -0.000593577   0.199406      -0.000593577  -0.000593577   0.00278338  -0.0150777
  7704.69      -0.000884781   0.199115      -0.000884781  -0.000884781  -0.00187728  -0.00998219
  7705.02      -0.00189828   0.198102      -0.00189828  -0.00189828  -0.00415424   0.00121095
  7705.38      -0.00376782   0.196232      -0.00376782  -0.00376782  -0.00103688   0.0285618
  7705.75      -0.00265417   0.197346      -0.00265417  -0.00265417   0.0166673   0.0355949
  7706.11       0.008416   0.208416       0.008416   0.008416   0.024983   0.0155553
  7706.47       0.0153836   0.215384       0.0153836   0.0153836   0.0278983   0.00913495
  7706.83       0.0284749   0.228475       0.0284749   0.0284749   0.0315511  -0.00106053
  7707.2       0.0382581   0.238258       0.0382581   0.0382581   0.0271294  -0.0197427
  7707.56       0.0481708   0.248171       0.0481708   0.0481708   0.0172179  -0.0333122
  7707.91       0.0506377   0.250638       0.0506377   0.0506377   0.00317794  -0.0178195
  7708.28       0.0504685   0.250468       0.0504685   0.0504685   0.00433437  -0.00158493
  7708.65       0.0538062   0.253806       0.0538062   0.0538062   0.00201936  -0.0161695
  7708.98       0.0518861   0.251886       0.0518861   0.0518861  -0.00701664  -0.00211954
  7709.29       0.0492874   0.249287       0.0492874   0.0492874   0.000654377   0.0212064
  7709.6       0.0522878   0.252288       0.0522878   0.0522878   0.00600412  -0.0121555
  7709.9       0.052968   0.252968       0.052968   0.052968  -0.00679692  -0.0298039
  7710.21       0.0481077   0.248108       0.0481077   0.0481077  -0.0123253   0.00129292
  7710.51       0.0454372   0.245437       0.0454372   0.0454372  -0.00600694   0.0157136
  7710.82       0.0444315   0.244431       0.0444315   0.0444315  -0.00270852   0.0213166
  7711.11       0.0438284   0.243828       0.0438284   0.0438284   0.0066551   0.0113707
  7711.42       0.048378   0.248378       0.048378   0.048378   0.00403433  -0.0177527
  7711.73       0.0463176   0.246318       0.0463176   0.0463176  -0.00429829  -0.00520728
  7712.03       0.0457431   0.245743       0.0457431   0.0457431   0.000842264  -0.00495157
  7712.33       0.0468297   0.24683       0.0468297   0.0468297  -0.00730885  -2.29694e-05
  7712.64       0.0412482   0.241248       0.0412482   0.0412482   0.000828138   0.0398091
  7712.95       0.0473431   0.247343       0.0473431   0.0473431   0.0173728   0.0428698
  7713.23       0.0515155   0.251515       0.0515155   0.0515155   0.0261642   0.0466039
  7713.54       0.0626491   0.262649       0.0626491   0.0626491   0.0446361   0.056075
  7713.85       0.0791006   0.279101       0.0791006   0.0791006   0.0608185   0.04999
  7714.16       0.100539       0.300539       0.100539       0.100539       0.0757798   0.0109781
  7714.47       0.125857       0.325857       0.125857       0.125857       0.067592  -0.0489044
  7714.78       0.142176       0.342176       0.142176       0.142176       0.0456547  -0.0414408
  7715.08       0.153569       0.353569       0.153569       0.153569       0.0424375   0.00789016
  7715.39       0.16802       0.36802       0.16802       0.16802       0.0504598  -0.00395925
  7715.67       0.183492       0.383492       0.183492       0.183492       0.0400896  -0.0534959
  7715.97       0.191513       0.391513       0.191513       0.191513       0.0191112  -0.0236382
  7716.14       0.192417       0.392417       0.192417       0.192417       0.0290506   0.068947
  7716.26       0.199734       0.399734       0.199734       0.199734       0.0386232   0.0185422
  7716.37       0.2013       0.4013       0.2013       0.2013       0.0333153   0.131433
  7716.5       0.207863       0.407863       0.207863       0.207863       0.0706928   0.138814
  7716.62       0.219185       0.419185       0.219185       0.219185       0.0684351  -0.0366228
  7716.73       0.223877       0.423877       0.223877       0.223877       0.0621231  -0.112895
  7716.87       0.23453       0.43453       0.23453       0.23453       0.04055  -0.100865
  7716.99       0.234217       0.434217       0.234217       0.234217       0.0364025   0.0595067
  7717.1       0.243048       0.443048       0.243048       0.243048       0.0544745  -0.030891
  7717.23       0.247563       0.447563       0.247563       0.247563       0.0288342   0.0694768
  7717.35       0.250228       0.450228       0.250228       0.250228       0.0717743   0.198276
  7717.46       0.264       0.464       0.264       0.264       0.0742393  -0.117128
  7717.59       0.268194       0.468194       0.268194       0.268194       0.0434292   0.0200678
  7717.71       0.27477       0.47477       0.27477       0.27477       0.0792161   0.271534
  7717.84       0.287998       0.487998       0.287998       0.287998       0.111313       0.0953908
  7717.96       0.302598       0.502598       0.302598       0.302598       0.103064      -0.110856
  7718.07       0.311908       0.511908       0.311908       0.311908       0.085594  -0.0478943
  7718.21       0.323654       0.523654       0.323654       0.323654       0.0912818  -0.00381626
  7718.33       0.335094       0.535094       0.335094       0.335094       0.0846247  -0.0641526
  7718.44       0.343541       0.543541       0.343541       0.343541       0.076206  -0.0226509
  7718.57       0.353765       0.553765       0.353765       0.353765       0.0790752   0.153727
  7718.69       0.363468       0.563468       0.363468       0.363468       0.114945       0.237295
  7718.81       0.380432       0.580432       0.380432       0.380432       0.134128      -0.0771277
  7718.94       0.396061       0.596061       0.396061       0.396061       0.0962031  -0.0590905
  7719.06       0.404579       0.604579       0.404579       0.404579       0.119296       0.137803
  7719.17       0.423738       0.623738       0.423738       0.423738       0.128173       0.0463198
  7719.3       0.435725       0.635725       0.435725       0.435725       0.130552       0.223075
  7719.42       0.456637       0.656637       0.456637       0.456637       0.184388       0.147442
  7719.53       0.479241       0.679241       0.479241       0.479241       0.165348      -0.203584
  7719.67       0.497312       0.697312       0.497312       0.497312       0.134307      -0.123948
  7719.79       0.51322       0.71322       0.51322       0.51322       0.133989       0.0883579
  7719.9       0.5288       0.7288       0.5288       0.5288       0.155071       0.275282
  7720.03       0.551367       0.751367       0.551367       0.551367       0.201709       0.229622
  7720.15       0.579832       0.779832       0.579832       0.579832       0.213165       0.00459421
  7720.27       0.601035       0.801035       0.601035       0.601035       0.202779      -0.156911
  7720.4       0.629108       0.829108       0.629108       0.629108       0.175036      -0.160421
  7720.52       0.644619       0.844619       0.644619       0.644619       0.162834      -0.00888209
  7720.65       0.669653       0.869653       0.669653       0.669653       0.172824       0.116745
  7720.77       0.687825       0.887825       0.687825       0.687825       0.192021       0.320415
  7720.88       0.714394       0.914394       0.714394       0.714394       0.247481       0.098405
  7721.01       0.748953       0.948953       0.748953       0.748953       0.216327      -0.357982
  7721.13       0.769341       0.969341       0.769341       0.769341       0.156553      -0.11493
  7721.25       0.78543       0.98543       0.78543       0.78543       0.189548       0.33212
  7721.38       0.81597        1.01597       0.81597       0.81597       0.238255       0.274759
  7721.5       0.845946        1.04595       0.845884       0.845884       0.259337       0.0318585
  7721.61       0.876396        2.26083       0.876507        2.06094       0.245678      -0.144255
  7721.74       0.905892        2.24342       0.906208        2.04374       0.224139       0.0539625
  7721.86       0.93243        2.228       0.93293        2.0285       0.259169      -0.0739312
  7721.97       0.965501        2.21349       0.966174        2.01416       0.207134      -0.399593
  7722.1       0.982557        2.19678       0.983432        1.99765       0.162467       0.0370717
  7722.23        1.00644        2.18124        1.00751        1.9823       0.216477       0.204938
  7722.36        1.03754        2.16458        1.03881        1.96585       0.214521      -0.181655
  7722.48        1.06072        2.14944        1.06217        1.9509       0.170518      -0.265887
  7722.59        1.07761        2.13531        1.07925        1.93694       0.152038      -0.215968
  7722.72        1.09797        2.1192        1.0998        1.92104       0.117606      -0.134792
  7722.85        1.10737        2.10434        1.10939        1.90637       0.117936       0.188292
  7722.96        1.12556        2.09082        1.12776        1.89302       0.161666       0.22006
  7723.05        1.14051        2.07967        1.14285        1.88201       0.163048      -0.106036
  7723.21        1.16714        2.06043        1.16974        1.86303       0.134627      -0.120304
  7723.41        1.1883        2.03781        1.1912        1.84071       0.12034      -0.0220062
  7723.6        1.21407        2.01506        1.21727        1.81826       0.126044      -0.0387785
  7723.8        1.23796        1.99264        1.24147        1.79615       0.105061      -0.153408
  7724        1.25578        1.97022        1.2596        1.77404       0.0651413  -0.228968
  7724.2        1.26389        1.94836        1.26801        1.75249       0.0139319  -0.153439
  7724.4        1.2613        1.92683        1.26573        1.73127       0.00437933   0.0119119
  7724.59        1.26561        1.90585        1.27035        1.71058       0.0186252  -0.0348551
  7724.79        1.26862        1.88507        1.27366        1.69011      -0.00931873  -0.128404
  7725.01        1.26174        1.86235        1.26712        1.66774      -0.0347909  -0.0334522
  7725.72        1.23612        1.7909        1.24262        1.59739      -0.0405631  -0.00723647
  7726.51        1.20093        1.71722        1.20864        1.52493      -0.0456384   0.00157914
  7727.3        1.16406        1.64735        1.173        1.45629      -0.0380697   0.00590701
  7728.07        1.14158        1.58465        1.15171        1.39478      -0.0364293   0.00495353
  7728.83        1.1084        1.52618        1.11971        1.33749      -0.0305007   0.0175941
  7729.59        1.09501        1.47184        1.10751        1.28434      -0.00956316   0.0187247
  7730.35        1.09383        1.42163        1.10751        1.23531      -0.00198295   0.00494928
  7731.15        1.09193        1.37318        1.10684        1.18809      -0.00187198   0.00260867
  7731.91        1.09092        1.33035        1.10701        1.14644       0.00207875  -0.00355452
  7732.68        1.09511        1.29072        1.1124        1.10801      -0.00731751  -0.007869
  7733.44        1.07971        1.25483        1.09818        1.0733      -0.00996869   0.00490335
  7734.21        1.07981        1.22171        1.09948        1.04138       0.00020913  -0.000657238
  7734.98        1.08004        1.19215        1.10089        1.01301      -0.0109775  -0.0107829
  7735.77        1.06267        1.16432        1.08477       0.986411      -0.016623   0.00612253
  7736.54        1.05405        1.14058        1.07733       0.963855      -0.00140803   0.00689374
  7737.31        1.06051        1.11935        1.08499       0.943821      -0.00604802  -0.0127754
  7738.08        1.04475        1.10071        1.07041       0.926374      -0.0210694  -0.00747442
  7738.84        1.02817        1.08455        1.05503       0.911399      -0.0175212   0.00689265
  7739.62        1.0178        1.07054        1.04585       0.898591      -0.0104685   0.0015721
  7740.39        1.01201        1.05868        1.04126       0.887932      -0.0150939  -0.00694583
  7741.16       0.994478        1.04882        1.02493       0.879267      -0.0211998  -0.00571408
  7741.95       0.978853        1.04065        1.01053       0.87233      -0.0240307  -0.000111955
  7744.45       0.915392        1.02594       0.950949       0.861492      -0.0215683   0.0016219
  7746.97       0.870645        1.0243       0.910108       0.863765      -0.0158937   0.00172933
  7749.45       0.835908        1.03079       0.879226       0.874109      -0.0129199   0.000975795
  7751.94       0.806485        1.0405       0.853655       0.887668      -0.0110479   0.00103834
  7754.45       0.780647        1.04995       0.831727       0.901032      -0.00772607   0.00203379
  7756.95       0.767747        1.05842       0.822697       0.913369      -0.00085045   0.00261563
  7759.43       0.776416        1.06599       0.835217       0.924791       0.00528672   0.00169872
  7761.95       0.79417        1.07283       0.856876       0.935537       0.00763977   0.00122431
  7764.47       0.814905        1.07886       0.881524       0.945478       0.0114548   0.000670459
  7766.97       0.85165        1.08404       0.922144       0.954539       0.0110041  -0.000137947
  7769.46       0.869859        1.08847       0.944229       0.962843       0.0107659   7.28631e-06
  7771.99       0.905716        1.09221       0.984003       0.9705       0.0110407  -0.00109835
  7774.49       0.92535        1.0952        1.00752       0.977374       0.00524556  -0.00176348
  7777       0.931996        1.09752        1.01806       0.983587       0.0022057  -0.000702677
  7780.56       0.938748        1.0997        1.03034       0.991291       0.000977498  -0.000878244
  7784.15       0.938987        1.10062        1.03615       0.99778      -0.0040755  -0.00059279
  7787.69       0.909685        1.10036        1.01235        1.00302      -0.00324969   0.000669581
  7791.28       0.915807        1.09899        1.02404        1.00722       0.000700616   0.000253434
  7794.86       0.914708        1.09659        1.02849        1.01037      -0.00143282  -0.000577036
  7798.44       0.905557        1.09323        1.02489        1.01257      -0.0034275  -0.000271277
  7802.02       0.890191        1.089        1.01508        1.01389      -0.00337327   2.60421e-05
  7805.61       0.881343        1.08393        1.01182        1.0144      -0.00324057   0.000133467
  7809.2       0.866895        1.07814        1.00294        1.01418      -0.00241377   0.000442709
  7812.81       0.863976        1.07167        1.00561        1.01331      -5.5277e-05  -5.88441e-05
  7816.38       0.866498        1.06469        1.01368        1.01187      -0.00283609  -0.000486265
  7819.99       0.843599        1.05712       0.996388        1.00991      -0.00354909   5.47759e-05
  7823.6       0.840859        1.04913       0.999252        1.00752      -0.00244039  -0.000107486
  7827.22       0.825957        1.04077       0.989965        1.00478      -0.00432611   2.58045e-05
  7830.81       0.809672        1.03222       0.979253        1.0018      -0.00225437   0.000723993
  7834.44       0.809692        1.02339       0.984896       0.99859       0.000897502  -5.57358e-05
  7838.06       0.816176        1.01445       0.997001       0.995274      -0.00265823  -0.000375214
  7841.69       0.790415        1.00546       0.976873       0.991916      -0.00182355   0.000841298
  7845.32       0.802937       0.996512       0.995029       0.988604       0.00344959   0.00145266