File: Dynamic XAS/Dynamic XAS Energy analyzed data/ESweep_0_5 Hz/Same Eo/Normalized Spectra/Ir0_5Hz_ReaddMean_VPhsCorrect_29_-134_mV_.csv.nor
# XDI/1.0 Athena/0.9.26
# Element.edge:                  K
# Element.symbol:                Co
# Column.1:                      energy eV
# Column.2:                      norm
# Column.3:                      nbkg
# Column.4:                      flat
# Column.5:                      fbkg
# Column.6:                      nder
# Column.7:                      nsec
# Athena.e0:                     7721.54
# Athena.eshift:                 0
# Athena.rbkg:                   1.0
# Athena.importance:             1
# Athena.standard:               None
# Athena.bkg_kweight:            3
# Athena.edge_step:              1.19384
# Athena.fixed_step:             no
# Athena.pre_edge_range:         -82.964 -19.904
# Athena.pre_edge_line:          0.131834 + 0.000197462 * E
# Athena.normalization_range:    45 125.256
# Athena.post_edge_polynomial:   15.6401 - 0.00165637 * E + 0 * E^2 + 0 * E^3
# Athena.spline_range_energy:    0.000 125.180
# Athena.clamps:                 0 24
# Athena.spline_range_k:         0.000 5.732
# Athena.kweight:                2
# Athena.window:                 hanning
# Athena.phase_correction:       no
# Athena.k_range:                .4 5.35
# Athena.dk:                     .5
# Athena.r_range:                .4 5.1
# Athena.dr:                     .5
# Athena.window:                 hanning
# Athena.plot_multiplier:        1
# Athena.y_offset:               0.2
# ///
#------------------------
#   e         norm        nbkg        flat        fbkg        nder        nsec
  7600.07      -0.212958      -0.0129583  -0.212958      -0.212958       0.0120393  -0.000496751
  7610.64      -0.085655   0.114345      -0.085655  -0.085655   0.00678663  -0.000371847
  7624.56      -0.0467605   0.15324      -0.0467605  -0.0467605   0.00293312  -0.000207436
  7637.2      -0.00775418   0.192246      -0.00775418  -0.00775418   0.00127734  -0.000130268
  7649.7      -0.0146443   0.185356      -0.0146443  -0.0146443  -0.000342197   9.59989e-05
  7662.2      -0.0163088   0.183691      -0.0163088  -0.0163088   0.00367722   2.26283e-05
  7674.73       0.0774111   0.277411       0.0774111   0.0774111   0.00022428  -0.000281535
  7687.33      -0.0106722   0.189328      -0.0106722  -0.0106722  -0.00339832   4.79681e-06
  7700.01      -0.00848817   0.191512      -0.00848817  -0.00848817   0.000345529   0.000890753
  7700.39      -0.00616059   0.193839      -0.00616059  -0.00616059   0.00823224   0.00655106
  7700.72      -0.00265151   0.197348      -0.00265151  -0.00265151   0.00499023  -0.0198049
  7701.07      -0.00275226   0.197248      -0.00275226  -0.00275226  -0.00529452  -0.00465119
  7701.43      -0.00643709   0.193563      -0.00643709  -0.00643709   0.00166463   0.0159416
  7701.8      -0.00154208   0.198458      -0.00154208  -0.00154208   0.00629504  -0.00819466
  7702.15      -0.00189836   0.198102      -0.00189836  -0.00189836  -0.00424372  -0.0162401
  7702.52      -0.00458483   0.195415      -0.00458483  -0.00458483  -0.0053491   0.00372314
  7702.88      -0.00577112   0.194229      -0.00577112  -0.00577112  -0.00154817   0.00446098
  7703.24      -0.00571034   0.19429      -0.00571034  -0.00571034  -0.00210597   0.00622866
  7703.6      -0.00728952   0.19271      -0.00728952  -0.00728952   0.0029427   0.015734
  7703.96      -0.00359454   0.196405      -0.00359454  -0.00359454   0.0092068   0.000448212
  7704.32      -0.000614591   0.199385      -0.000614591  -0.000614591   0.00326765  -0.0151998
  7704.69      -0.00122223   0.198778      -0.00122223  -0.00122223  -0.00182823  -0.00965454
  7705.02      -0.00188521   0.198115      -0.00188521  -0.00188521  -0.00344225   0.00118563
  7705.38      -0.00361115   0.196389      -0.00361115  -0.00361115  -0.0010054   0.0275466
  7705.75      -0.00261815   0.197382      -0.00261815  -0.00261815   0.0166392   0.0377959
  7706.11       0.00855213   0.208552       0.00855213   0.00855213   0.0266234   0.0161991
  7706.47       0.0166039   0.216604       0.0166039   0.0166039   0.028335   0.00442207
  7706.83       0.028925   0.228925       0.028925   0.028925   0.0298029  -0.00228636
  7707.2       0.038211   0.238211       0.038211   0.038211   0.0266774  -0.0164623
  7707.56       0.0482927   0.248293       0.0482927   0.0482927   0.0178512  -0.0337641
  7707.91       0.051046   0.251046       0.051046   0.051046   0.00240096  -0.0202551
  7708.28       0.0500286   0.250029       0.0500286   0.0500286   0.00320677  -5.08785e-05
  7708.65       0.0533902   0.25339       0.0533902   0.0533902   0.00236376  -0.0141987
  7708.98       0.051688   0.251688       0.051688   0.051688  -0.00676071  -0.00201035
  7709.29       0.0490363   0.249036       0.0490363   0.0490363   0.0010691   0.0214
  7709.6       0.0523444   0.252344       0.0523444   0.0523444   0.0063789  -0.012247
  7709.9       0.0529466   0.252947       0.0529466   0.0529466  -0.0064383  -0.031248
  7710.21       0.0483849   0.248385       0.0483849   0.0483849  -0.0128386   0.00126025
  7710.51       0.0451022   0.245102       0.0451022   0.0451022  -0.00566829   0.0179249
  7710.82       0.0449159   0.244916       0.0449159   0.0449159  -0.00186858   0.0221241
  7711.11       0.0439922   0.243992       0.0439922   0.0439922   0.00747345   0.0110927
  7711.42       0.0493476   0.249348       0.0493476   0.0493476   0.00470942  -0.0207762
  7711.73       0.0468979   0.246898       0.0468979   0.0468979  -0.00534545  -0.00584281
  7712.03       0.0460709   0.246071       0.0460709   0.0460709   0.00112778  -0.0031412
  7712.33       0.0475836   0.247584       0.0475836   0.0475836  -0.0072553  -0.00135334
  7712.64       0.0416089   0.241609       0.0416089   0.0416089   0.000295473   0.0413884
  7712.95       0.0477668   0.247767       0.0477668   0.0477668   0.0184055   0.0430786
  7713.23       0.0524865   0.252487       0.0524865   0.0524865   0.0257549   0.0465792
  7713.54       0.0628335   0.262833       0.0628335   0.0628335   0.0456543   0.0600407
  7713.85       0.0807009   0.280701       0.0807009   0.0807009   0.0628601   0.0469245
  7714.16       0.101995       0.301995       0.101995       0.101995       0.0748883   0.00722366
  7714.47       0.126907       0.326907       0.126907       0.126907       0.0673171  -0.0478937
  7714.78       0.143463       0.343463       0.143463       0.143463       0.0453857  -0.0413617
  7715.08       0.154456       0.354456       0.154456       0.154456       0.0422105   0.00857762
  7715.39       0.169169       0.369169       0.169169       0.169169       0.0506095  -0.00418079
  7715.67       0.184468       0.384468       0.184468       0.184468       0.0397313  -0.0500505
  7715.97       0.192451       0.392451       0.192451       0.192451       0.0212799  -0.0232846
  7716.14       0.194405       0.394405       0.194405       0.194405       0.0288574   0.0525544
  7716.26       0.200618       0.400618       0.200618       0.200618       0.0361528   0.0383343
  7716.37       0.20272       0.40272       0.20272       0.20272       0.0376743   0.143212
  7716.5       0.209811       0.409811       0.209811       0.209811       0.0710966   0.109262
  7716.62       0.220708       0.420708       0.220708       0.220708       0.0653177  -0.0420266
  7716.73       0.225095       0.425095       0.225095       0.225095       0.0612624  -0.093064
  7716.87       0.23584       0.43584       0.23584       0.23584       0.0423309  -0.0782656
  7716.99       0.235889       0.435889       0.235889       0.235889       0.0413047   0.0667071
  7717.1       0.245505       0.445505       0.245505       0.245505       0.0579403  -0.0652459
  7717.23       0.250085       0.450085       0.250085       0.250085       0.0253195   0.042108
  7717.35       0.25181       0.45181       0.25181       0.25181       0.0684252   0.236596
  7717.46       0.265754       0.465754       0.265754       0.265754       0.0794999  -0.0980644
  7717.59       0.271049       0.471049       0.271049       0.271049       0.0446936   0.00632035
  7717.71       0.276838       0.476838       0.276838       0.276838       0.0810673   0.278163
  7717.84       0.291315       0.491315       0.291315       0.291315       0.114235       0.0619405
  7717.96       0.305397       0.505397       0.305397       0.305397       0.0965525  -0.132412
  7718.07       0.313716       0.513716       0.313716       0.313716       0.0835149  -0.00362838
  7718.21       0.325941       0.525941       0.325941       0.325941       0.0956599   0.0221259
  7718.33       0.338013       0.538013       0.338013       0.338013       0.0891349  -0.112623
  7718.44       0.346888       0.546888       0.346888       0.346888       0.0691935  -0.0583765
  7718.57       0.354966       0.554966       0.354966       0.354966       0.0748326   0.194091
  7718.69       0.365746       0.565746       0.365746       0.365746       0.118104       0.268157
  7718.81       0.382366       0.582366       0.382366       0.382366       0.137045      -0.0706751
  7718.94       0.399048       0.599048       0.399048       0.399048       0.10093      -0.0641459
  7719.06       0.407699       0.607699       0.407699       0.407699       0.120944       0.111981
  7719.17       0.427107       0.627107       0.427107       0.427107       0.12691       0.0263167
  7719.3       0.438538       0.638538       0.438538       0.438538       0.127339       0.245755
  7719.42       0.459197       0.659196       0.459196       0.459196       0.18884       0.159713
  7719.53       0.483105       0.683105       0.483105       0.483105       0.165032      -0.251317
  7719.67       0.499794       0.699794       0.499794       0.499794       0.127016      -0.109736
  7719.79       0.51524       0.71524       0.51524       0.51524       0.137268       0.119528
  7719.9       0.532052       0.732052       0.532052       0.532052       0.155105       0.253254
  7720.03       0.553396       0.753396       0.553396       0.553396       0.199569       0.251391
  7720.15       0.582543       0.782543       0.582543       0.582543       0.218707       0.0267842
  7720.27       0.604355       0.804355       0.604355       0.604355       0.20581      -0.19789
  7720.4       0.632555       0.832555       0.632555       0.632555       0.17062      -0.178876
  7720.52       0.646839       0.846839       0.646839       0.646839       0.161269       0.0165227
  7720.65       0.672711       0.872711       0.672711       0.672711       0.174734       0.139724
  7720.77       0.690523       0.890522       0.690522       0.690522       0.1962       0.287344
  7720.88       0.718426       0.918426       0.718426       0.718426       0.241685       0.0486945
  7721.01       0.750219       0.950219       0.750219       0.750219       0.208228      -0.297419
  7721.13       0.771316       0.971316       0.771316       0.771316       0.166141      -0.0588313
  7721.25       0.78893       0.98893       0.78893       0.78893       0.19452       0.276883
  7721.38       0.819168        1.01917       0.819168       0.819168       0.234254       0.24716
  7721.5       0.84843        1.04843       0.848368       0.848368       0.257299       0.0592196
  7721.61       0.879118        2.25777       0.87923        2.05788       0.248052      -0.146911
  7721.74       0.908955        2.24043       0.909272        2.04074       0.221453       0.038676
  7721.86       0.934482        2.22506       0.934982        2.02556       0.257721      -0.0466869
  7721.97       0.968231        2.21058       0.968905        2.01126       0.210715      -0.378428
  7722.1       0.985475        2.19393       0.98635        1.99481       0.166141       0.00721871
  7722.23        1.0101        2.17844        1.01116        1.97951       0.212534       0.163225
  7722.36        1.03946        2.16183        1.04073        1.9631       0.207601      -0.149193
  7722.48        1.06262        2.14675        1.06408        1.94821       0.174788      -0.248275
  7722.59        1.08053        2.13265        1.08217        1.93429       0.149256      -0.256862
  7722.72        1.09919        2.1166        1.10103        1.91844       0.111857      -0.12293
  7722.85        1.10883        2.10179        1.11086        1.90382       0.118155       0.222276
  7722.96        1.12684        2.08831        1.12904        1.89051       0.163869       0.232714
  7723.05        1.14243        2.07719        1.14477        1.87954       0.165861      -0.135291
  7723.21        1.16913        2.05802        1.17173        1.86062       0.12937      -0.14817
  7723.41        1.18835        2.03547        1.19125        1.83837       0.113261      -0.0126326
  7723.6        1.2133        2.01279        1.21651        1.816       0.124443      -0.0204242
  7723.8        1.23738        1.99045        1.24089        1.79396       0.105214      -0.15344
  7724        1.25507        1.9681        1.25889        1.77192       0.0635276  -0.228374
  7724.2        1.26267        1.94631        1.26679        1.75044       0.0143208  -0.145587
  7724.4        1.26074        1.92485        1.26518        1.72928       0.00587532   0.00561226
  7724.59        1.26498        1.90393        1.26972        1.70867       0.0165321  -0.0408326
  7724.79        1.26724        1.88322        1.27229        1.68826      -0.0101719  -0.123384
  7725.01        1.26075        1.86057        1.26614        1.66596      -0.0347957  -0.0314487
  7725.72        1.23474        1.78935        1.24124        1.59584      -0.039545  -0.00647285
  7726.51        1.20147        1.7159        1.20919        1.52361      -0.0444985   0.000621906
  7727.3        1.16448        1.64625        1.17343        1.4552      -0.038563   0.00544312
  7728.07        1.14135        1.58375        1.15149        1.39389      -0.0360126   0.0061075
  7728.83        1.10945        1.52546        1.12077        1.33678      -0.0292307   0.0169578
  7729.59        1.09672        1.47129        1.10922        1.2838      -0.010118   0.0179312
  7730.35        1.09404        1.42123        1.10773        1.23492      -0.00192153   0.00532175
  7731.15        1.09373        1.37294        1.10865        1.18786      -0.00184803   0.00172761
  7731.91        1.09116        1.33023        1.10727        1.14634       0.000768358  -0.00406518
  7732.68        1.09491        1.29073        1.11221        1.10803      -0.00807589  -0.00710976
  7733.44        1.0788        1.25494        1.09728        1.07342      -0.0101167   0.00561184
  7734.21        1.07938        1.22192        1.09906        1.0416       0.000538288  -0.000600704
  7734.98        1.07963        1.19245        1.10049        1.01332      -0.0110388  -0.010949
  7735.77        1.06215        1.1647        1.08425       0.986803      -0.0165531   0.00634624
  7736.54        1.05375        1.14102        1.07705       0.964315      -0.00111959   0.00698195
  7737.31        1.06043        1.11985        1.08492       0.944341      -0.00584279  -0.0127708
  7738.08        1.04476        1.10126        1.07044       0.926946      -0.0207738  -0.0077703
  7738.84        1.02854        1.08514        1.05541       0.912013      -0.0177702   0.00604418
  7739.62        1.01743        1.07117        1.0455       0.899241      -0.0114778   0.00190433
  7740.39        1.01082        1.05934        1.04009       0.88861      -0.0148299  -0.00553354
  7741.16       0.99452        1.0495        1.02499       0.879967      -0.0200272  -0.00563863
  7741.95       0.979499        1.04135        1.01119       0.873046      -0.0236487  -0.000504447
  7744.45       0.916692        1.02664       0.95227       0.862222      -0.0216873   0.00147171
  7746.97       0.870693        1.02498       0.91018       0.864464      -0.0162651   0.00179859
  7749.45       0.83535        1.03141       0.878694       0.874752      -0.0126926   0.00108309
  7751.94       0.807662        1.04105       0.85486       0.888245      -0.0108865   0.000957708
  7754.45       0.780896        1.05043       0.832007       0.901542      -0.00790209   0.00206379
  7756.95       0.768041        1.05883       0.823025       0.913818      -0.000538639   0.00264761
  7759.43       0.778216        1.06635       0.837053       0.925182       0.00526977   0.00160468
  7761.95       0.794379        1.07313       0.857125       0.935873       0.00748155   0.00121591
  7764.47       0.815908        1.0791       0.882568       0.945761       0.0113955   0.000685046
  7766.97       0.851562        1.08424       0.922099       0.954773       0.0109191  -0.000100951
  7769.46       0.870438        1.08862       0.944853       0.963033       0.0108914  -1.82885e-05
  7771.99       0.906259        1.09231       0.984594       0.970647       0.0108273  -0.0011313
  7774.49       0.924856        1.09526        1.00707       0.977483       0.00520545  -0.0017236
  7777       0.932338        1.09755        1.01845       0.983661       0.00219205  -0.000698062
  7780.56       0.93817        1.09967        1.02982       0.99132       0.000965427  -0.000865231
  7784.15       0.939243        1.10055        1.03646       0.997769      -0.00399608  -0.000621491
  7787.69       0.909674        1.10025        1.0124        1.00298      -0.00346642   0.000659106
  7791.28       0.914517        1.09885        1.02281        1.00715       0.000705327   0.000308451
  7794.86       0.914731        1.09643        1.02859        1.01029      -0.00125514  -0.000597427
  7798.44       0.905537        1.09306        1.02494        1.01247      -0.00356866  -0.000282427
  7802.02       0.889204        1.08881        1.01417        1.01378      -0.00327534   5.14225e-05
  7805.61       0.882027        1.08374        1.01258        1.01429      -0.00319955   0.000100118
  7809.2       0.866203        1.07795        1.00233        1.01408      -0.00255559   0.000456481
  7812.81       0.863639        1.07149        1.00536        1.01322       8.48282e-05  -3.04982e-05
  7816.38       0.866811        1.06452        1.01408        1.01179      -0.00277448  -0.000512913
  7819.99       0.843705        1.05697       0.996587        1.00985      -0.00360045   5.47481e-05
  7823.6       0.840802        1.04901       0.999291        1.0075      -0.00237898  -0.000122419
  7827.22       0.826507        1.04068       0.990615        1.00479      -0.00448542   3.2468e-05
  7830.81       0.808466        1.03216       0.97815        1.00184      -0.00214492   0.000764637
  7834.44       0.811032        1.02337       0.986343       0.998684       0.00103144  -0.000104199
  7838.06       0.81594        1.01448       0.996876       0.995419      -0.00289994  -0.000393197
  7841.69       0.790001        1.00555       0.976574       0.992118      -0.00182003   0.000882318
  7845.32       0.802727       0.996659       0.994936       0.988868       0.00350569   0.00146714