File: Dynamic XAS/Dynamic XAS Energy analyzed data/ESweep_0_5 Hz/Same Eo/Normalized Spectra/Ir0_5Hz_ReaddMean_VPhsCorrect_20_134_mV_.csv.nor
# XDI/1.0 Athena/0.9.26
# Element.edge:                  K
# Element.symbol:                Co
# Column.1:                      energy eV
# Column.2:                      norm
# Column.3:                      nbkg
# Column.4:                      flat
# Column.5:                      fbkg
# Column.6:                      nder
# Column.7:                      nsec
# Athena.e0:                     7721.54
# Athena.eshift:                 0
# Athena.rbkg:                   1.0
# Athena.importance:             1
# Athena.standard:               None
# Athena.bkg_kweight:            3
# Athena.edge_step:              1.19683
# Athena.fixed_step:             no
# Athena.pre_edge_range:         -82.964 -19.904
# Athena.pre_edge_line:          0.244373 + 0.000182831 * E
# Athena.normalization_range:    45 125.256
# Athena.post_edge_polynomial:   15.8918 - 0.00168864 * E + 0 * E^2 + 0 * E^3
# Athena.spline_range_energy:    0.000 125.180
# Athena.clamps:                 0 24
# Athena.spline_range_k:         0.000 5.732
# Athena.kweight:                2
# Athena.window:                 hanning
# Athena.phase_correction:       no
# Athena.k_range:                .4 5.35
# Athena.dk:                     .5
# Athena.r_range:                .4 5.1
# Athena.dr:                     .5
# Athena.window:                 hanning
# Athena.plot_multiplier:        1
# Athena.y_offset:               0.2
# ///
#------------------------
#   e         norm        nbkg        flat        fbkg        nder        nsec
  7600.07      -0.213442      -0.0134416  -0.213442      -0.213442       0.0118992  -0.000483518
  7610.64      -0.087619   0.112381      -0.087619  -0.087619   0.00678653  -0.000362086
  7624.56      -0.0472463   0.152754      -0.0472463  -0.0472463   0.00303212  -0.000207315
  7637.2      -0.00708891   0.192911      -0.00708891  -0.00708891   0.00128046  -0.000134198
  7649.7      -0.0150516   0.184948      -0.0150516  -0.0150516  -0.000342011   9.37847e-05
  7662.2      -0.0156389   0.184361      -0.0156389  -0.0156389   0.00362499   2.12012e-05
  7674.73       0.0756964   0.275696       0.0756964   0.0756964   0.000188739  -0.000276559
  7687.33      -0.0108955   0.189105      -0.0108955  -0.0108955  -0.0033255   7.8448e-06
  7700.01      -0.00836234   0.191638      -0.00836234  -0.00836234   0.000387032   0.000907196
  7700.39      -0.005842   0.194158      -0.005842  -0.005842   0.00851975   0.00641682
  7700.72      -0.00232184   0.197678      -0.00232184  -0.00232184   0.00493656  -0.0202328
  7701.07      -0.00247033   0.19753      -0.00247033  -0.00247033  -0.00529926  -0.00583457
  7701.43      -0.00611081   0.193889      -0.00611081  -0.00611081   0.000764839   0.0143759
  7701.8      -0.00191429   0.198086      -0.00191429  -0.00191429   0.00515201  -0.00652512
  7702.15      -0.00239621   0.197604      -0.00239621  -0.00239621  -0.00393977  -0.0143487
  7702.52      -0.00473911   0.195261      -0.00473911  -0.00473911  -0.00513602   0.00169205
  7702.88      -0.00611469   0.193885      -0.00611469  -0.00611469  -0.00271473   0.00641844
  7703.24      -0.00671272   0.193287      -0.00671272  -0.00671272  -0.000469817   0.00723758
  7703.6      -0.00645342   0.193547      -0.00645342  -0.00645342   0.00250356   0.0106581
  7703.96      -0.00491265   0.195087      -0.00491265  -0.00491265   0.00719337   0.00366489
  7704.32      -0.00123823   0.198762      -0.00123823  -0.00123823   0.00516061  -0.0123775
  7704.69      -0.00116605   0.198834      -0.00116605  -0.00116605  -0.00179271  -0.0133319
  7705.02      -0.00248416   0.197516      -0.00248416  -0.00248416  -0.00410508   0.00221166
  7705.38      -0.00401498   0.195985      -0.00401498  -0.00401498  -0.000257819   0.0265826
  7705.75      -0.00267211   0.197328      -0.00267211  -0.00267211   0.0152736   0.0330068
  7706.11       0.00715002   0.20715       0.00715002   0.00715002   0.0238702   0.0181367
  7706.47       0.0145622   0.214562       0.0145622   0.0145622   0.0283683   0.0122839
  7706.83       0.0275468   0.227547       0.0275468   0.0275468   0.0327023  -0.00218754
  7707.2       0.0382713   0.238271       0.0382713   0.0382713   0.0267823  -0.0184232
  7707.56       0.0469908   0.246991       0.0469908   0.0469908   0.0193271  -0.0297493
  7707.91       0.0521675   0.252167       0.0521675   0.0521675   0.00539259  -0.0234115
  7708.28       0.0508897   0.25089       0.0508897   0.0508897   0.00240056  -0.00620305
  7708.65       0.0539223   0.253922       0.0539223   0.0539223   0.00085816  -0.0148414
  7708.98       0.0514921   0.251492       0.0514921   0.0514921  -0.00801811   0.00257778
  7709.29       0.0487586   0.248759       0.0487586   0.0487586   0.00251825   0.0266314
  7709.6       0.0530383   0.253038       0.0530383   0.0530383   0.00833357  -0.0141146
  7709.9       0.0538671   0.253867       0.0538671   0.0538671  -0.00613397  -0.0390912
  7710.21       0.0492659   0.249266       0.0492659   0.0492659  -0.0157075  -0.00707007
  7710.51       0.0442698   0.24427       0.0442698   0.0442698  -0.0104538   0.0213517
  7710.82       0.0428682   0.242868       0.0428682   0.0428682  -0.00264026   0.030617
  7711.11       0.0427015   0.242701       0.0427015   0.0427015   0.00773268   0.00951584
  7711.42       0.0474537   0.247454       0.0474537   0.0474537   0.00300263  -0.0263187
  7711.73       0.0445541   0.244554       0.0445541   0.0445541  -0.00850598  -0.00994841
  7712.03       0.0422395   0.24224       0.0422395   0.0422395  -0.00309574   0.00379112
  7712.33       0.0426719   0.242672       0.0426719   0.0426719  -0.00620097   0.00997362
  7712.64       0.0384259   0.238426       0.0384259   0.0384259   0.00303804   0.0329132
  7712.95       0.0445555   0.244555       0.0445555   0.0445555   0.0142052   0.0337484
  7713.23       0.0468212   0.246821       0.0468212   0.0468212   0.0229833   0.0480029
  7713.54       0.0580007   0.258001       0.0580007   0.0580007   0.0422869   0.0573744
  7713.85       0.0729545   0.272954       0.0729545   0.0729545   0.0584407   0.0547567
  7714.16       0.0944093   0.294409       0.0944093   0.0944093   0.0764003   0.0205198
  7714.47       0.120093       0.320093       0.120093       0.120093       0.0711014  -0.0494902
  7714.78       0.138208       0.338208       0.138208       0.138208       0.0459144  -0.0614579
  7715.08       0.147964       0.347964       0.147964       0.147964       0.0337965   0.000415604
  7715.39       0.15879       0.35879       0.15879       0.15879       0.0461675   0.020492
  7715.67       0.175341       0.375341       0.175341       0.175341       0.0459483  -0.0418764
  7715.97       0.185716       0.385715       0.185715       0.185715       0.0216279  -0.0620291
  7716.14       0.185441       0.385441       0.185441       0.185441       0.0169807   0.0666636
  7716.26       0.190521       0.390521       0.190521       0.190521       0.0404937   0.14242
  7716.37       0.194755       0.394755       0.194755       0.194755       0.0497372   0.115706
  7716.5       0.202657       0.402657       0.202657       0.202657       0.0687259   0.07514
  7716.62       0.212142       0.412142       0.212142       0.212142       0.0687476  -0.129956
  7716.73       0.218744       0.418744       0.218744       0.218744       0.0383161  -0.163899
  7716.87       0.221606       0.421606       0.221606       0.221606       0.0282645  -0.0156766
  7716.99       0.225951       0.425951       0.225951       0.225951       0.0343186   0.0258312
  7717.1       0.229637       0.429637       0.229637       0.229637       0.034309   0.0547944
  7717.23       0.234357       0.434357       0.234357       0.234357       0.0477432   0.229124
  7717.35       0.241525       0.441525       0.241525       0.241525       0.0913609   0.0392159
  7717.46       0.255279       0.455279       0.255279       0.255279       0.0567236  -0.192835
  7717.59       0.255252       0.455252       0.255252       0.255252       0.0446948   0.101866
  7717.71       0.266363       0.466363       0.266363       0.266363       0.0819865   0.134575
  7717.84       0.275749       0.475749       0.275749       0.275749       0.0783385   0.0551678
  7717.96       0.285948       0.485948       0.285948       0.285948       0.0957784   0.110331
  7718.07       0.297969       0.497969       0.297969       0.297969       0.103935      -0.0292595
  7718.21       0.311516       0.511516       0.311516       0.311516       0.0885806  -0.150672
  7718.33       0.320469       0.520469       0.320469       0.320469       0.0656647   0.0432546
  7718.44       0.326947       0.526947       0.326947       0.326947       0.0987454   0.124323
  7718.57       0.344661       0.544661       0.344661       0.344661       0.0961238  -0.071836
  7718.69       0.35117       0.55117       0.35117       0.35117       0.0806428  -0.00835071
  7718.81       0.363371       0.56337       0.36337       0.36337       0.0941865   0.170396
  7718.94       0.374057       0.574057       0.374057       0.374057       0.122049       0.276415
  7719.06       0.394005       0.594005       0.394005       0.394005       0.163567       0.0121206
  7719.17       0.412005       0.612005       0.412005       0.412005       0.124861      -0.174568
  7719.3       0.424346       0.624346       0.424346       0.424346       0.121146       0.0815749
  7719.42       0.442534       0.642534       0.442534       0.442534       0.145418       0.0160167
  7719.53       0.458665       0.658665       0.458665       0.458665       0.124926       0.00686325
  7719.67       0.473266       0.673266       0.473266       0.473266       0.147106       0.13101
  7719.79       0.495882       0.695882       0.495882       0.495882       0.158072       0.115227
  7719.9       0.510413       0.710413       0.510413       0.510413       0.174185       0.162402
  7720.03       0.538732       0.738732       0.538732       0.538732       0.198023       0.118347
  7720.15       0.560512       0.760512       0.560512       0.560512       0.204126      -0.0802411
  7720.27       0.586293       0.786293       0.586293       0.586293       0.179327      -0.121993
  7720.4       0.604089       0.804089       0.604089       0.604089       0.174482      -0.071006
  7720.52       0.629739       0.829739       0.629739       0.629739       0.161646       0.0239736
  7720.65       0.644339       0.844339       0.644339       0.644339       0.180452       0.266203
  7720.77       0.674852       0.874852       0.674852       0.674852       0.228197       0.103738
  7720.88       0.697508       0.897508       0.697508       0.697508       0.204623      -0.0100406
  7721.01       0.725394       0.925394       0.725394       0.725394       0.225717      -0.0451022
  7721.13       0.75484       0.95484       0.75484       0.75484       0.193167      -0.110218
  7721.25       0.770402       0.970402       0.770402       0.770402       0.200036       0.254205
  7721.38       0.804049        1.00405       0.804049       0.804049       0.255701       0.261544
  7721.5       0.83535        1.03535       0.835287       0.835287       0.266468      -0.152012
  7721.61       0.866136        2.26985       0.866249        2.06997       0.220282      -0.196922
  7721.74       0.889099        2.25231       0.889418        2.05263       0.218419       0.280608
  7721.86       0.920741        2.23676       0.921245        2.03726       0.290434      -0.036806
  7721.97       0.955899        2.22212       0.956577        2.0228       0.209954      -0.57894
  7722.1       0.97155        2.20527       0.972432        2.00615       0.150331       0.0329125
  7722.23       0.993782        2.1896       0.994855        1.99067       0.218248       0.280813
  7722.36        1.02699        2.1728        1.02826        1.97408       0.221657      -0.106915
  7722.48        1.04986        2.15754        1.05133        1.959       0.191198      -0.192376
  7722.59        1.07192        2.14328        1.07356        1.94492       0.176449      -0.279808
  7722.72        1.09309        2.12704        1.09494        1.92889       0.122645      -0.211179
  7722.85        1.10295        2.11205        1.10499        1.9141       0.123021       0.223479
  7722.96        1.12188        2.09841        1.1241        1.90063       0.174939       0.265461
  7723.05        1.13881        2.08717        1.14117        1.88953       0.17744      -0.133743
  7723.21        1.16713        2.06777        1.16974        1.87039       0.140835      -0.145839
  7723.41        1.18881        2.04497        1.19172        1.84788       0.125667      -0.0276555
  7723.6        1.21614        2.02202        1.21936        1.82525       0.130049      -0.0532308
  7723.8        1.24004        1.99941        1.24358        1.80295       0.104694      -0.139779
  7724        1.2577        1.9768        1.26155        1.78065       0.0745572  -0.182682
  7724.2        1.26972        1.95476        1.27387        1.75892       0.0319872  -0.158858
  7724.4        1.27037        1.93305        1.27483        1.73751       0.0116496  -0.0332045
  7724.59        1.27431        1.91188        1.27908        1.71665       0.0189046  -0.0533025
  7724.79        1.2778        1.89093        1.28288        1.69601      -0.00929823  -0.131912
  7725.01        1.27044        1.86802        1.27586        1.67344      -0.0359707  -0.0352713
  7725.72        1.2442        1.79596        1.25074        1.6025      -0.0422416  -0.00803
  7726.51        1.20712        1.72165        1.21489        1.52942      -0.0480076  -0.000116427
  7727.3        1.1684        1.65119        1.17741        1.4602      -0.0424254   0.00528
  7728.07        1.14098        1.58795        1.15118        1.39816      -0.0397761   0.00870494
  7728.83        1.10762        1.52897        1.11902        1.34037      -0.0291243   0.0197659
  7729.59        1.09651        1.47417        1.1091        1.28676      -0.00959359   0.0168816
  7730.35        1.09301        1.42352        1.10679        1.2373      -0.00341364   0.00576908
  7731.15        1.0912        1.37465        1.10622        1.18967      -0.000628437   0.00367706
  7731.91        1.09203        1.33144        1.10824        1.14765       0.00231155  -0.00462767
  7732.68        1.09474        1.29146        1.11216        1.10888      -0.00771802  -0.00726196
  7733.44        1.08021        1.25525        1.09882        1.07386      -0.00880652   0.00449696
  7734.21        1.08122        1.22183        1.10104        1.04165      -0.000815193  -0.00220056
  7734.98        1.07896        1.19201        1.09997        1.01302      -0.0121844  -0.00995385
  7735.77        1.0622        1.16392        1.08446       0.986181      -0.0163532   0.0067018
  7736.54        1.0534        1.13996        1.07685       0.963415      -0.00170947   0.00744814
  7737.31        1.05958        1.11853        1.08424       0.943192      -0.00492772  -0.0121379
  7738.08        1.04582        1.09972        1.07168       0.925579      -0.0203898  -0.00917637
  7738.84        1.02828        1.0834        1.05534       0.910457      -0.0190135   0.00652521
  7739.62        1.01657        1.06926        1.04484       0.89752      -0.010354   0.00372404
  7740.39        1.0123        1.05728        1.04177       0.886751      -0.0132635  -0.0071063
  7741.16       0.996081        1.04731        1.02676       0.877993      -0.0213332  -0.0072539
  7741.95       0.978932        1.03906        1.01085       0.870977      -0.0246086  -0.000161197
  7744.45       0.915094        1.02416       0.950922       0.859986      -0.0218637   0.00168772
  7746.97       0.869242        1.02246       0.909005       0.862222      -0.0161413   0.00175882
  7749.45       0.834372        1.02896       0.878019       0.872609      -0.0130679   0.000982551
  7751.94       0.804347        1.03872       0.851875       0.886251      -0.011262   0.00100017
  7754.45       0.778039        1.04824       0.829508       0.899709      -0.00806506   0.00210031
  7756.95       0.763909        1.05678       0.819278       0.912148      -0.000731034   0.00275755
  7759.43       0.774402        1.06443       0.833651       0.923675       0.00565376   0.00168608
  7761.95       0.792166        1.07135       0.85535       0.934534       0.00769601   0.00112466
  7764.47       0.813175        1.07746       0.880301       0.94459       0.0113198   0.000684692
  7766.97       0.848969        1.08274       0.92       0.953768       0.0111318  -2.87005e-05
  7769.46       0.868767        1.08726       0.943702       0.962191       0.0111765  -1.11207e-05
  7771.99       0.905097        1.09108       0.983981       0.969967       0.0110759  -0.0011456
  7774.49       0.924435        1.09416        1.00723       0.976959       0.00541866  -0.00174433
  7777       0.932245        1.09657        1.01896       0.983288       0.00233684  -0.000749185
  7780.56       0.938629        1.09886        1.03092       0.991152       0.000868109  -0.000919749
  7784.15       0.938453        1.09989        1.03635       0.997791      -0.0042412  -0.000562373
  7787.69       0.908385        1.09973        1.01183        1.00317      -0.00314218   0.000707049
  7791.28       0.91604        1.09844        1.0251        1.00749       0.000802184   0.000247515
  7794.86       0.914136        1.0961        1.02879        1.01075      -0.00136774  -0.000581683
  7798.44       0.906255        1.09278        1.0265        1.01303      -0.00335918  -0.000312843
  7802.02       0.890107        1.08856        1.01595        1.0144      -0.00360551   1.1094e-05
  7805.61       0.880375        1.08348        1.01184        1.01495      -0.00327954   0.000122866
  7809.2       0.866531        1.07765        1.00361        1.01473      -0.00272222   0.000446011
  7812.81       0.860789        1.0711        1.00351        1.01381      -7.04974e-05   4.5604e-05
  7816.38       0.866025        1.06399        1.01433        1.0123      -0.00239492  -0.000513823
  7819.99       0.843581        1.05627       0.997533        1.01022      -0.00376232  -3.11789e-05
  7823.6       0.838846        1.04807       0.998444        1.00767      -0.00262016  -9.33434e-05
  7827.22       0.82464        1.03947       0.989896        1.00472      -0.0044371   5.64601e-05
  7830.81       0.806859        1.0306       0.97773        1.00147      -0.00221313   0.000744304
  7834.44       0.808672        1.02141       0.98521       0.997952       0.000933057  -4.27585e-05
  7838.06       0.81362        1.01206       0.995821       0.994261      -0.00252296  -0.000368966
  7841.69       0.790376        1.00259       0.978254       0.990466      -0.00174268   0.000749435
  7845.32       0.800968       0.993097       0.994522       0.986651       0.00291793   0.00128392