File: Dynamic XAS/Dynamic XAS Energy analyzed data/ESweep_0_5 Hz/Same Eo/Normalized Spectra/Ir0_5Hz_ReaddMean_VPhsCorrect_32_-202_mV_.csv.nor
# XDI/1.0 Athena/0.9.26
# Element.edge:                  K
# Element.symbol:                Co
# Column.1:                      energy eV
# Column.2:                      norm
# Column.3:                      nbkg
# Column.4:                      flat
# Column.5:                      fbkg
# Column.6:                      nder
# Column.7:                      nsec
# Athena.e0:                     7721.54
# Athena.eshift:                 0
# Athena.rbkg:                   1.0
# Athena.importance:             1
# Athena.standard:               None
# Athena.bkg_kweight:            3
# Athena.edge_step:              1.19285
# Athena.fixed_step:             no
# Athena.pre_edge_range:         -82.964 -19.904
# Athena.pre_edge_line:          0.045501 + 0.000208697 * E
# Athena.normalization_range:    45 125.256
# Athena.post_edge_polynomial:   15.5616 - 0.00164628 * E + 0 * E^2 + 0 * E^3
# Athena.spline_range_energy:    0.000 125.180
# Athena.clamps:                 0 24
# Athena.spline_range_k:         0.000 5.732
# Athena.kweight:                2
# Athena.window:                 hanning
# Athena.phase_correction:       no
# Athena.k_range:                .4 5.35
# Athena.dk:                     .5
# Athena.r_range:                .4 5.1
# Athena.dr:                     .5
# Athena.window:                 hanning
# Athena.plot_multiplier:        1
# Athena.y_offset:               0.2
# ///
#------------------------
#   e         norm        nbkg        flat        fbkg        nder        nsec
  7600.07      -0.212084      -0.0120844  -0.212084      -0.212084       0.0121065  -0.000504789
  7610.64      -0.0840699   0.11593      -0.0840699  -0.0840699   0.00676889  -0.000376632
  7624.56      -0.0463211   0.153679      -0.0463211  -0.0463211   0.00288318  -0.000208517
  7637.2      -0.00749541   0.192505      -0.00749541  -0.00749541   0.00123088  -0.000129582
  7649.7      -0.015373   0.184627      -0.015373  -0.015373  -0.00037489   0.000101858
  7662.2      -0.0168673   0.183133      -0.0168673  -0.0168673   0.00377722   2.41993e-05
  7674.73       0.0791861   0.279186       0.0791861   0.0791861   0.000230915  -0.000288722
  7687.33      -0.0110639   0.188936      -0.0110639  -0.0110639  -0.00347895   7.01982e-06
  7700.01      -0.00875126   0.191249      -0.00875126  -0.00875126   0.000408355   0.00102039
  7700.39      -0.00573203   0.194268      -0.00573203  -0.00573203   0.00984432   0.00547986
  7700.72      -0.00177164   0.198228      -0.00177164  -0.00177164   0.00429358  -0.0242949
  7701.07      -0.00279951   0.1972      -0.00279951  -0.00279951  -0.00674907  -0.00588061
  7701.43      -0.00659722   0.193403      -0.00659722  -0.00659722   8.89385e-05   0.018352
  7701.8      -0.00273485   0.197265      -0.00273485  -0.00273485   0.00659283  -0.00441211
  7702.15      -0.00184379   0.198156      -0.00184379  -0.00184379  -0.00309219  -0.016935
  7702.52      -0.00495196   0.195048      -0.00495196  -0.00495196  -0.00554956   0.000288425
  7702.88      -0.00586167   0.194138      -0.00586167  -0.00586167  -0.00288337   0.00522359
  7703.24      -0.00704817   0.192952      -0.00704817  -0.00704817  -0.00175201   0.00946637
  7703.6      -0.00712486   0.192875      -0.00712487  -0.00712487   0.00394187   0.0149626
  7703.96      -0.00421396   0.195786      -0.00421396  -0.00421396   0.00900612  -0.000255465
  7704.32      -0.000595424   0.199405      -0.000595425  -0.000595424   0.00375666  -0.0175106
  7704.69      -0.00148663   0.198513      -0.00148663  -0.00148663  -0.00370661  -0.0111647
  7705.02      -0.00317152   0.196828      -0.00317152  -0.00317152  -0.00400279   0.00707676
  7705.38      -0.00426456   0.195735      -0.00426456  -0.00426456   0.00120467   0.0281494
  7705.75      -0.00229332   0.197707      -0.00229332  -0.00229332   0.0165181   0.031982
  7706.11       0.00781019   0.20781       0.00781019   0.00781019   0.0245835   0.0185596
  7706.47       0.015456   0.215456       0.015456   0.015456   0.0299182   0.0132043
  7706.83       0.0293214   0.229321       0.0293214   0.0293214   0.0340774  -0.00594909
  7707.2       0.0401621   0.240162       0.0401621   0.0401621   0.0256051  -0.0235868
  7707.56       0.0479106   0.247911       0.0479106   0.0479106   0.0169534  -0.0299558
  7707.91       0.0523516   0.252352       0.0523516   0.0523516   0.00406688  -0.0213651
  7708.28       0.050851   0.250851       0.050851   0.050851   0.00150641  -0.00556218
  7708.65       0.0534528   0.253453       0.0534528   0.0534528   9.25377e-07  -0.0126292
  7708.98       0.0508516   0.250852       0.0508516   0.0508516  -0.00735927   0.00480757
  7709.29       0.0487134   0.248713       0.0487134   0.0487134   0.003097   0.021608
  7709.6       0.0527532   0.252753       0.0527532   0.0527532   0.00590804  -0.0155404
  7709.9       0.052335   0.252335       0.052335   0.052335  -0.00642928  -0.0298294
  7710.21       0.0487992   0.248799       0.0487992   0.0487992  -0.012437  -0.00024054
  7710.51       0.044736   0.244736       0.044736   0.044736  -0.00657625   0.0185937
  7710.82       0.0447745   0.244775       0.0447745   0.0447745  -0.00105767   0.0253043
  7711.11       0.0441077   0.244108       0.0441077   0.0441077   0.00845447   0.0137728
  7711.42       0.049788   0.249788       0.049788   0.049788   0.00710959  -0.0213139
  7711.73       0.0484944   0.248494       0.0484944   0.0484944  -0.00469618  -0.0106332
  7712.03       0.0469093   0.246909       0.0469093   0.0469093   0.00059144  -0.00217152
  7712.33       0.0488539   0.248854       0.0488539   0.0488539  -0.00601647   0.00437183
  7712.64       0.0432091   0.243209       0.0432091   0.0432091   0.00328011   0.0398908
  7712.95       0.0508876   0.250888       0.0508876   0.0508876   0.0187158   0.0371716
  7713.23       0.0542702   0.25427       0.0542702   0.0542702   0.0252485   0.0492512
  7713.54       0.065658   0.265658       0.065658   0.065658   0.0475278   0.0633094
  7713.85       0.0836423   0.283642       0.0836423   0.0836423   0.0643737   0.0424231
  7714.16       0.105763       0.305763       0.105763       0.105763       0.0739573   0.00124344
  7714.47       0.129274       0.329274       0.129274       0.129274       0.0651409  -0.0445398
  7714.78       0.14589       0.34589       0.14589       0.14589       0.0465208  -0.0397691
  7715.08       0.157512       0.357512       0.157512       0.157512       0.0410011   0.00535284
  7715.39       0.170859       0.370859       0.170859       0.170859       0.0497807   0.00409258
  7715.67       0.187032       0.387032       0.187032       0.187032       0.043428  -0.040782
  7715.97       0.196308       0.396308       0.196308       0.196308       0.0258825  -0.0457785
  7716.14       0.199119       0.399119       0.199119       0.199119       0.0220495   0.0102112
  7716.26       0.202548       0.402548       0.202548       0.202548       0.0287722   0.12167
  7716.37       0.205737       0.405737       0.205737       0.205737       0.0500336   0.197991
  7716.5       0.214756       0.414756       0.214756       0.214756       0.0770821   0.0492918
  7716.62       0.225239       0.425239       0.225239       0.225239       0.0625044  -0.0918397
  7716.73       0.229382       0.429382       0.229382       0.229382       0.0555916  -0.0366603
  7716.87       0.23897       0.43897       0.23897       0.23897       0.0534493  -0.00514866
  7716.99       0.243012       0.443012       0.243012       0.243012       0.0542787  -0.00162891
  7717.1       0.251671       0.451671       0.251671       0.251671       0.0530682  -0.0987481
  7717.23       0.256014       0.456014       0.256014       0.256014       0.0300854   0.0547786
  7717.35       0.259162       0.459162       0.259162       0.259162       0.066708   0.205749
  7717.46       0.27129       0.47129       0.27129       0.27129       0.0772021  -0.0916048
  7717.59       0.277845       0.477845       0.277845       0.277845       0.0445397   0.033445
  7717.71       0.282336       0.482336       0.282336       0.282336       0.0854964   0.28721
  7717.84       0.299219       0.499219       0.299219       0.299219       0.116342      -0.0269712
  7717.96       0.311421       0.511421       0.311421       0.311421       0.0787536  -0.134828
  7718.07       0.31749       0.51749       0.31749       0.31749       0.085062   0.124752
  7718.21       0.332346       0.532346       0.332346       0.332346       0.109443       0.0457128
  7718.33       0.345289       0.545289       0.345289       0.345289       0.096673  -0.178782
  7718.44       0.355065       0.555065       0.355065       0.355065       0.0674288  -0.0758196
  7718.57       0.361809       0.561809       0.361809       0.361809       0.0780972   0.151461
  7718.69       0.374745       0.574745       0.374745       0.374745       0.105597       0.203834
  7718.81       0.386307       0.586307       0.386307       0.386307       0.125387       0.0578664
  7718.94       0.405214       0.605214       0.405214       0.405214       0.119658       0.0329334
  7719.06       0.416341       0.616341       0.416341       0.416341       0.133653       0.0499995
  7719.17       0.436221       0.636222       0.436222       0.436222       0.131258      -0.0722371
  7719.3       0.448237       0.648237       0.448237       0.448237       0.116099       0.216291
  7719.42       0.465479       0.665479       0.465479       0.465479       0.185764       0.195315
  7719.53       0.492077       0.692077       0.492077       0.492077       0.162194      -0.273796
  7719.67       0.505378       0.705378       0.505378       0.505378       0.11841      -0.0219408
  7719.79       0.522035       0.722035       0.522035       0.522035       0.156643       0.217799
  7719.9       0.542189       0.742189       0.542189       0.542189       0.169593       0.0976024
  7720.03       0.563755       0.763755       0.563755       0.563755       0.180653       0.189901
  7720.15       0.587894       0.787894       0.587894       0.587894       0.217638       0.0858692
  7720.27       0.614464       0.814464       0.614464       0.614464       0.20066      -0.227986
  7720.4       0.636655       0.836655       0.636655       0.636655       0.162237      -0.107017
  7720.52       0.654861       0.854861       0.654861       0.654861       0.174013       0.033863
  7720.65       0.679984       0.879984       0.679984       0.679984       0.170669       0.14053
  7720.77       0.697528       0.897529       0.697529       0.697529       0.209145       0.316766
  7720.88       0.728715       0.928715       0.728715       0.728715       0.244475      -0.0566744
  7721.01       0.757914       0.957914       0.757914       0.757914       0.195147      -0.249262
  7721.13       0.778282       0.978282       0.778282       0.778282       0.181163       0.00813616
  7721.25       0.800125        1.00012       0.800125       0.800125       0.197043       0.154226
  7721.38       0.826755        1.02675       0.826755       0.826755       0.219102       0.236168
  7721.5       0.855777        1.05578       0.855715       0.855715       0.257029       0.164873
  7721.61       0.886642        2.2466       0.886754        2.04671       0.257518      -0.130219
  7721.74       0.918611        2.22943       0.918928        2.02975       0.225256      -0.0803444
  7721.86       0.942956        2.21422       0.943457        2.01472       0.237432      -0.117139
  7721.97       0.97322        2.1999       0.973895        2.00057       0.198314      -0.332478
  7722.1       0.990948        2.18341       0.991825        1.98429       0.156972       0.0192497
  7722.23        1.01278        2.16808        1.01384        1.96915       0.203165       0.217222
  7722.36        1.04255        2.15165        1.04382        1.95292       0.212146      -0.0783989
  7722.48        1.06645        2.13671        1.06791        1.93817       0.18333      -0.273906
  7722.59        1.08563        2.12277        1.08727        1.9244       0.147778      -0.357066
  7722.72        1.10266        2.10688        1.1045        1.90872       0.0958488  -0.143682
  7722.85        1.10988        2.09222        1.11192        1.89425       0.111427       0.345916
  7722.96        1.12873        2.07887        1.13094        1.88108       0.176793       0.229511
  7723.05        1.14613        2.06788        1.14848        1.87022       0.158477      -0.24581
  7723.21        1.16914        2.0489        1.17174        1.8515       0.114111      -0.135944
  7723.41        1.18664        2.02658        1.18954        1.82948       0.110216       0.0286265
  7723.6        1.21213        2.00413        1.21533        1.80734       0.125276      -0.0357833
  7723.8        1.236        1.98202        1.23951        1.78553       0.0961176  -0.172181
  7724        1.25028        1.9599        1.25411        1.76372       0.05692  -0.191062
  7724.2        1.25865        1.93833        1.26278        1.74246       0.020075  -0.135364
  7724.4        1.25823        1.91709        1.26268        1.72153       0.00331573  -0.0181316
  7724.59        1.25996        1.89638        1.2647        1.70112       0.0129311  -0.0103093
  7724.79        1.26332        1.87588        1.26837        1.68093      -0.000735832  -0.105782
  7725.01        1.25965        1.85347        1.26504        1.65886      -0.0310743  -0.0425627
  7725.72        1.23429        1.78296        1.2408        1.58947      -0.0404894  -0.00991828
  7726.51        1.19896        1.71027        1.20668        1.51799      -0.0459418   0.0018792
  7727.3        1.16175        1.64132        1.17071        1.45028      -0.0375221   0.0074673
  7728.07        1.14046        1.57945        1.15061        1.3896      -0.0343003   0.00563443
  7728.83        1.10934        1.52174        1.12068        1.33308      -0.0289127   0.0157185
  7729.59        1.09631        1.46812        1.10883        1.28064      -0.0102981   0.0167787
  7730.35        1.09366        1.41856        1.10736        1.23226      -0.0033588   0.00525308
  7731.15        1.09109        1.37074        1.10603        1.18568      -0.0021348   0.00293552
  7731.91        1.09033        1.32846        1.10646        1.14458       0.0012118  -0.00356767
  7732.68        1.09295        1.28934        1.11027        1.10666      -0.00760047  -0.00578536
  7733.44        1.0787        1.2539        1.0972        1.07241      -0.00764558   0.00424058
  7734.21        1.08121        1.22119        1.10092        1.0409      -0.00109118  -0.00366847
  7734.98        1.07702        1.19201        1.09791        1.0129      -0.0132767  -0.00927768
  7735.77        1.06049        1.16452        1.08262       0.986655      -0.0155736   0.00824553
  7736.54        1.05268        1.14106        1.076       0.964389      -0.000388933   0.00696403
  7737.31        1.05989        1.12009        1.08441       0.944611      -0.0048908  -0.0130705
  7738.08        1.04515        1.10167        1.07087       0.927384      -0.0205045  -0.00807395
  7738.84        1.02841        1.08569        1.05532       0.912596      -0.0172843   0.0059619
  7739.62        1.01857        1.07183        1.04668       0.899944      -0.0113351   0.00106611
  7740.39        1.01091        1.0601        1.04022       0.889412      -0.0156382  -0.00564027
  7741.16       0.994408        1.05033        1.02492       0.880847      -0.0200493  -0.00536214
  7741.95       0.979556        1.04224        1.0113       0.873987      -0.0240246  -0.000562249
  7744.45       0.915343        1.02761       0.950973       0.86324      -0.0218997   0.00162319
  7746.97       0.869685        1.02588       0.909229       0.865429      -0.0158811   0.00186048
  7749.45       0.835922        1.03218       0.879329       0.875588      -0.0125954   0.00104507
  7751.94       0.807137        1.04166       0.854403       0.888925      -0.0106913   0.00101644
  7754.45       0.782444        1.0509       0.83363       0.902081      -0.00751115   0.00196804
  7756.95       0.769476        1.05917       0.82454       0.914234      -0.000823487   0.00257079
  7759.43       0.778347        1.06657       0.837269       0.925494       0.00527854   0.00170775
  7761.95       0.795858        1.07326       0.858694       0.936096       0.00771182   0.00119714
  7764.47       0.817199        1.07915       0.883956       0.945911       0.0113097   0.000535749
  7766.97       0.85261        1.08422       0.92325       0.954864       0.0104002  -8.26491e-05
  7769.46       0.869138        1.08855       0.943661       0.963078       0.010897   0.000129959
  7771.99       0.907335        1.09221       0.985784       0.970657       0.0110529  -0.00115753
  7774.49       0.92469        1.09513        1.00703       0.977468       0.00507926  -0.00181004
  7777       0.932782        1.09739        1.01902       0.983632       0.00198456  -0.000696469
  7780.56       0.936744        1.0995        1.02853       0.991284       0.00084891  -0.000819579
  7784.15       0.938853        1.10038        1.03622       0.997739      -0.00387707  -0.000546396
  7787.69       0.909096        1.10009        1.01197        1.00296      -0.00304744   0.000635801
  7791.28       0.917116        1.0987        1.02557        1.00716       0.000658105   0.000173464
  7794.86       0.913814        1.0963        1.02784        1.01032      -0.00180388  -0.000566479
  7798.44       0.904211        1.09294        1.02379        1.01252      -0.00339449  -0.00021713
  7802.02       0.889534        1.08871        1.01468        1.01385      -0.00335701   2.55058e-05
  7805.61       0.880114        1.08364        1.01086        1.01438      -0.0032114   0.000150525
  7809.2       0.866447        1.07784        1.00277        1.01416      -0.00227488   0.00043776
  7812.81       0.863747        1.07135        1.00568        1.01328      -6.17244e-05  -9.45058e-05
  7816.38       0.866004        1.06434        1.01349        1.01183      -0.00295315  -0.000496589
  7819.99       0.842528        1.05673       0.995633        1.00983      -0.00362971   8.58006e-05
  7823.6       0.839783        1.04867       0.998503        1.00739      -0.00233333  -6.79983e-05
  7827.22       0.825661        1.04023       0.990007        1.00458      -0.00412127   3.89499e-05
  7830.81       0.810073        1.03156       0.980003        1.00149      -0.00205254   0.000680765
  7834.44       0.810852        1.02258       0.986417       0.998147       0.000790444  -9.19327e-05
  7838.06       0.8158        1.01346       0.996999       0.99466      -0.00271868  -0.000374142
  7841.69       0.791136        1.00425       0.977979       0.991093      -0.00192283   0.000780666
  7845.32       0.80184       0.995041       0.994329       0.987529       0.00294896   0.00134209