File: Dynamic XAS/Dynamic XAS Energy analyzed data/ESweep_0_5 Hz/Same Eo/Normalized Spectra/Ir0_5Hz_ReaddMean_VPhsCorrect_12_250_mV_.csv.nor
# XDI/1.0 Athena/0.9.26
# Element.edge:                  K
# Element.symbol:                Co
# Column.1:                      energy eV
# Column.2:                      norm
# Column.3:                      nbkg
# Column.4:                      flat
# Column.5:                      fbkg
# Column.6:                      nder
# Column.7:                      nsec
# Athena.e0:                     7721.54
# Athena.eshift:                 0
# Athena.rbkg:                   1.0
# Athena.importance:             1
# Athena.standard:               None
# Athena.bkg_kweight:            3
# Athena.edge_step:              1.19491
# Athena.fixed_step:             no
# Athena.pre_edge_range:         -82.964 -19.904
# Athena.pre_edge_line:          0.280266 + 0.000178211 * E
# Athena.normalization_range:    45 125.256
# Athena.post_edge_polynomial:   15.7012 - 0.00166416 * E + 0 * E^2 + 0 * E^3
# Athena.spline_range_energy:    0.000 125.180
# Athena.clamps:                 0 24
# Athena.spline_range_k:         0.000 5.732
# Athena.kweight:                2
# Athena.window:                 hanning
# Athena.phase_correction:       no
# Athena.k_range:                .4 5.35
# Athena.dk:                     .5
# Athena.r_range:                .4 5.1
# Athena.dr:                     .5
# Athena.window:                 hanning
# Athena.plot_multiplier:        1
# Athena.y_offset:               0.2
# ///
#------------------------
#   e         norm        nbkg        flat        fbkg        nder        nsec
  7600.07      -0.214984      -0.0149838  -0.214984      -0.214984       0.0121083  -0.000504429
  7610.64      -0.0869502   0.11305      -0.0869502  -0.0869502   0.0067745  -0.0003729
  7624.56      -0.049083   0.150917      -0.049083  -0.049083   0.00297639  -0.000203609
  7637.2      -0.00790024   0.1921      -0.00790024  -0.00790024   0.00136684  -0.000130649
  7649.7      -0.0147165   0.185283      -0.0147165  -0.0147165  -0.000308521   9.18149e-05
  7662.2      -0.015613   0.184387      -0.015613  -0.015613   0.00366212   1.99113e-05
  7674.73       0.0769609   0.276961       0.076961   0.076961   0.000189937  -0.00028007
  7687.33      -0.0108394   0.189161      -0.0108394  -0.0108394  -0.00337661   6.34822e-06
  7700.01      -0.00838956   0.19161      -0.00838956  -0.00838956   0.000350401   0.000933511
  7700.39      -0.00626425   0.193736      -0.00626425  -0.00626425   0.00881225   0.006029
  7700.72      -0.00214168   0.197858      -0.00214168  -0.00214168   0.00462496  -0.022125
  7701.07      -0.0031054   0.196895      -0.0031054  -0.0031054  -0.0062991  -0.00308249
  7701.43      -0.00664554   0.193354      -0.00664554  -0.00664554   0.00242098   0.0170167
  7701.8      -0.00134535   0.198655      -0.00134535  -0.00134535   0.00607205  -0.00924503
  7702.15      -0.00226759   0.197732      -0.00226759  -0.00226759  -0.00424469  -0.017439
  7702.52      -0.00438879   0.195611      -0.00438879  -0.00438879  -0.00643168   0.00200702
  7702.88      -0.00692412   0.193076      -0.00692412  -0.00692412  -0.0027916   0.00848483
  7703.24      -0.00641829   0.193582      -0.00641829  -0.00641829  -0.000263206   0.00811669
  7703.6      -0.00711389   0.192886      -0.00711389  -0.00711389   0.00306054   0.0125448
  7703.96      -0.00421776   0.195782      -0.00421776  -0.00421776   0.00875652   0.00247843
  7704.32      -0.000765418   0.199235      -0.000765418  -0.000765418   0.0048574  -0.016587
  7704.69      -0.000691289   0.199309      -0.000691289  -0.000691289  -0.00328564  -0.0144698
  7705.02      -0.00304894   0.196951      -0.00304894  -0.00304894  -0.00519909   0.00457986
  7705.38      -0.00429946   0.195701      -0.00429946  -0.00429946  -0.000107217   0.0284705
  7705.75      -0.0031271   0.196873      -0.0031271  -0.0031271   0.0155559   0.0342624
  7706.11       0.00707191   0.207072       0.00707191   0.00707191   0.0249386   0.018322
  7706.47       0.0148786   0.214879       0.0148786   0.0148786   0.0287844   0.0104904
  7706.83       0.0277679   0.227768       0.0277679   0.0277679   0.0324812  -0.00341181
  7707.2       0.0384274   0.238427       0.0384274   0.0384274   0.0263108  -0.0232843
  7707.56       0.0468696   0.24687       0.0468696   0.0468696   0.0155768  -0.0284277
  7707.91       0.0496271   0.249627       0.0496271   0.0496271   0.00587132  -0.0136587
  7708.28       0.0511145   0.251115       0.0511145   0.0511145   0.0057015  -0.00949193
  7708.65       0.0537949   0.253795       0.0537949   0.0537949  -0.00106728  -0.0202818
  7708.98       0.0503653   0.250365       0.0503653   0.0503653  -0.0085363   0.00761352
  7709.29       0.0482975   0.248298       0.0482975   0.0482975   0.00383583   0.0273124
  7709.6       0.0527205   0.25272       0.0527205   0.0527205   0.00823351  -0.0154394
  7709.9       0.0533447   0.253345       0.0533447   0.0533447  -0.00562852  -0.0363849
  7710.21       0.0492589   0.249259       0.0492589   0.0492589  -0.0141432  -0.00506171
  7710.51       0.0447032   0.244703       0.0447032   0.0447032  -0.00872122   0.0170872
  7710.82       0.0439216   0.243922       0.0439216   0.0439216  -0.00368581   0.0279315
  7711.11       0.0425138   0.242514       0.0425138   0.0425138   0.00787007   0.0140943
  7711.42       0.0485885   0.248589       0.0485885   0.0485885   0.00467213  -0.0228556
  7711.73       0.0453965   0.245397       0.0453965   0.0453965  -0.00623185  -0.0139476
  7712.03       0.0447684   0.244768       0.0447684   0.0447684  -0.00387774  -0.00888426
  7712.33       0.0430389   0.243039       0.0430389   0.0430389  -0.0116335   0.0124782
  7712.64       0.0376138   0.237614       0.0376138   0.0376138   0.00379637   0.049608
  7712.95       0.0453926   0.245393       0.0453926   0.0453926   0.0191235   0.035103
  7713.23       0.0489158   0.248916       0.0489158   0.0489158   0.0245423   0.0400949
  7713.54       0.0597499   0.25975       0.0597499   0.0597499   0.042579   0.0582121
  7713.85       0.0752296   0.27523       0.0752296   0.0752296   0.0605173   0.0487824
  7714.16       0.0974522   0.297452       0.0974522   0.0974522   0.0729704   0.00848189
  7714.47       0.120252       0.320252       0.120252       0.120252       0.0657507  -0.0368334
  7714.78       0.137955       0.337955       0.137955       0.137955       0.0502811  -0.0494062
  7715.08       0.150773       0.350773       0.150773       0.150773       0.0357611  -0.0153207
  7715.39       0.159733       0.359733       0.159733       0.159733       0.0409508   0.0123884
  7715.67       0.175057       0.375057       0.175057       0.175057       0.0431074  -0.0151969
  7715.97       0.184994       0.384994       0.184994       0.184994       0.0320454  -0.0532199
  7716.14       0.190022       0.390022       0.190022       0.190022       0.0182537  -0.0215746
  7716.26       0.19016       0.39016       0.19016       0.19016       0.0259397   0.184797
  7716.37       0.195988       0.395988       0.195988       0.195988       0.060757   0.132735
  7716.5       0.204985       0.404985       0.204985       0.204985       0.0583271  -0.0670505
  7716.62       0.210745       0.410745       0.210745       0.210745       0.0437933  -0.0130065
  7716.73       0.215232       0.415232       0.215232       0.215232       0.0552835   0.064847
  7716.87       0.2244       0.4244       0.2244       0.2244       0.0598105  -0.0650542
  7716.99       0.230484       0.430484       0.230484       0.230484       0.0386947  -0.10601
  7717.1       0.233454       0.433454       0.233454       0.233454       0.0350042   0.0628006
  7717.23       0.23906       0.43906       0.23906       0.23906       0.0540809   0.214665
  7717.35       0.246921       0.446921       0.246921       0.246921       0.0884557  -0.00139035
  7717.46       0.259316       0.459316       0.259316       0.259316       0.0537625  -0.251002
  7717.59       0.259931       0.459931       0.259931       0.259931       0.0277133   0.121607
  7717.71       0.266189       0.466189       0.266189       0.266189       0.0839211   0.290443
  7717.84       0.280911       0.480911       0.280911       0.280911       0.100324      -0.029135
  7717.96       0.29127       0.49127       0.29127       0.29127       0.0766374   0.0156555
  7718.07       0.298691       0.498691       0.298691       0.298691       0.103956       0.135389
  7718.21       0.316843       0.516843       0.316843       0.316843       0.109943      -0.154781
  7718.33       0.326617       0.526617       0.326617       0.326617       0.0646418  -0.176782
  7718.44       0.332034       0.532034       0.332034       0.332034       0.0683991   0.141258
  7718.57       0.343375       0.543375       0.343375       0.343375       0.0992499   0.0874902
  7718.69       0.357045       0.557045       0.357045       0.357045       0.0904466   0.00114837
  7718.81       0.364358       0.564358       0.364358       0.364358       0.0995163   0.188198
  7718.94       0.381228       0.581228       0.381228       0.381228       0.136179       0.238028
  7719.06       0.398539       0.598539       0.398539       0.398539       0.159261      -0.054528
  7719.17       0.418176       0.618176       0.418176       0.418176       0.123528      -0.274067
  7719.3       0.428556       0.628556       0.428556       0.428556       0.092663   0.151538
  7719.42       0.441527       0.641527       0.441527       0.441527       0.161716       0.286581
  7719.53       0.466721       0.666721       0.466721       0.466721       0.160296      -0.178355
  7719.67       0.48096       0.68096       0.48096       0.48096       0.117841       0.00395802
  7719.79       0.496535       0.696535       0.496535       0.496535       0.161298       0.293681
  7719.9       0.518865       0.718865       0.518865       0.518865       0.186856       0.0373761
  7720.03       0.542502       0.742502       0.542502       0.542502       0.170492       0.132429
  7720.15       0.562       0.762       0.562       0.562       0.22036       0.138106
  7720.27       0.593846       0.793846       0.593846       0.593846       0.202671      -0.339173
  7720.4       0.611249       0.811249       0.611249       0.611249       0.137941      -0.165158
  7720.52       0.628193       0.828193       0.628193       0.628193       0.161547       0.139034
  7720.65       0.651474       0.851474       0.651474       0.651474       0.172561       0.297531
  7720.77       0.671333       0.871333       0.671333       0.671333       0.235929       0.304738
  7720.88       0.706445       0.906445       0.706445       0.706445       0.243565      -0.186575
  7721.01       0.731494       0.931494       0.731494       0.731494       0.189845      -0.145532
  7721.13       0.754666       0.954666       0.754666       0.754666       0.2066       0.0634935
  7721.25       0.779631       0.979631       0.779631       0.779631       0.204639       0.0444901
  7721.38       0.805007        1.00501       0.805007       0.805007       0.217544       0.240874
  7721.5       0.834887        1.03489       0.834826       0.834826       0.265821       0.15708
  7721.61       0.866944        2.27024       0.867055        2.07035       0.254144      -0.107176
  7721.74       0.896899        2.2527       0.897213        2.05301       0.23967       0.00485172
  7721.86       0.926861        2.23716       0.927358        2.03765       0.255357      -0.12559
  7721.97       0.955631        2.22252       0.9563        2.02319       0.210784      -0.357493
  7722.1       0.977871        2.20568       0.978741        2.00655       0.168843      -0.0150191
  7722.23       0.998179        2.19002       0.999237        1.99108       0.207       0.202328
  7722.36        1.03045        2.17323        1.03171        1.97449       0.220234      -0.0598492
  7722.48        1.0539        2.15797        1.05535        1.95942       0.191858      -0.24152
  7722.59        1.07554        2.14372        1.07716        1.94534       0.163477      -0.303966
  7722.72        1.09395        2.12749        1.09578        1.92931       0.117386      -0.142283
  7722.85        1.10523        2.11251        1.10725        1.91452       0.12748       0.253317
  7722.96        1.12378        2.09887        1.12597        1.90106       0.176662       0.199189
  7723.05        1.14145        2.08764        1.14378        1.88997       0.168313      -0.166513
  7723.21        1.1667        2.06825        1.16928        1.87083       0.134201      -0.107934
  7723.41        1.18909        2.04545        1.19197        1.84833       0.129997      -0.00731334
  7723.6        1.2174        2.02252        1.22058        1.8257       0.131349      -0.0793704
  7723.8        1.24084        1.99992        1.24433        1.8034       0.098725  -0.15092
  7724        1.25659        1.97732        1.26039        1.78111       0.071434  -0.163019
  7724.2        1.26927        1.95528        1.27337        1.75938       0.0338433  -0.158386
  7724.4        1.26999        1.93358        1.2744        1.73798       0.00871319  -0.0490307
  7724.59        1.27271        1.91242        1.27741        1.71713       0.0145252  -0.0280558
  7724.79        1.2757        1.89148        1.28071        1.69649      -0.00231274  -0.112135
  7725.01        1.27174        1.86858        1.27709        1.67393      -0.0321228  -0.0439132
  7725.72        1.2457        1.79655        1.25215        1.603      -0.0433277  -0.0113883
  7726.51        1.2068        1.72228        1.21445        1.52994      -0.0491938   0.00100258
  7727.3        1.16802        1.65185        1.17691        1.46073      -0.0417446   0.00624609
  7728.07        1.14172        1.58864        1.15178        1.39871      -0.0394562   0.00802565
  7728.83        1.10773        1.52969        1.11897        1.34093      -0.0294814   0.0203065
  7729.59        1.0967        1.47491        1.10912        1.28733      -0.0084482   0.0172873
  7730.35        1.09487        1.42429        1.10846        1.23788      -0.0031529   0.00419725
  7731.15        1.0918        1.37544        1.10661        1.19025      -0.00192567   0.00459775
  7731.91        1.09187        1.33225        1.10786        1.14824       0.0040058  -0.00343629
  7732.68        1.09794        1.2923        1.11511        1.10947      -0.00719006  -0.00908928
  7733.44        1.08086        1.25611        1.09921        1.07446      -0.00990989   0.00344564
  7734.21        1.08272        1.2227        1.10227        1.04225      -0.00190101  -0.00180981
  7734.98        1.07794        1.1929        1.09866        1.01362      -0.012688  -0.00891959
  7735.77        1.06292        1.16483        1.08487       0.986778      -0.0158245   0.0072774
  7736.54        1.05321        1.14088        1.07634       0.964011      -0.00131337   0.00693964
  7737.31        1.0609        1.11947        1.08522       0.943785      -0.00517908  -0.012424
  7738.08        1.04524        1.10067        1.07074       0.926167      -0.0204338  -0.00799446
  7738.84        1.02954        1.08436        1.05622       0.911041      -0.0174506   0.00673192
  7739.62        1.0184        1.07023        1.04627       0.898098      -0.0100801   0.00203707
  7740.39        1.01397        1.05826        1.04303       0.887322      -0.0143053  -0.00806914
  7741.16       0.996299        1.0483        1.02655       0.878557      -0.022547  -0.00645019
  7741.95       0.97871        1.04006        1.01018       0.871533      -0.0243934   0.000335832
  7744.45       0.91602        1.02519       0.951347       0.860512      -0.0214417   0.00164898
  7746.97       0.871137        1.02351       0.910345       0.862714      -0.0161205   0.00164164
  7749.45       0.835401        1.03003       0.878439       0.873064      -0.0132319   0.00103749
  7751.94       0.805428        1.0398       0.852292       0.886667      -0.0109683   0.00108219
  7754.45       0.780538        1.04934       0.831287       0.900088      -0.0078188   0.0019739
  7756.95       0.766224        1.05789       0.82082       0.91249      -0.00107122   0.00261391
  7759.43       0.775208        1.06556       0.833629       0.923982       0.00518539   0.00177758
  7761.95       0.792141        1.0725       0.854442       0.934805       0.00781312   0.00126867
  7764.47       0.814571        1.07864       0.880759       0.944828       0.011577   0.000669427
  7766.97       0.850234        1.08393       0.920273       0.953973       0.0111723  -0.000110413
  7769.46       0.870365        1.08848       0.944254       0.962366       0.0110256  -3.52308e-05
  7771.99       0.905604        1.09233       0.983386       0.970112       0.0109954  -0.00113791
  7774.49       0.925628        1.09544        1.00727       0.977077       0.0053064  -0.00174986
  7777       0.932189        1.09787        1.0177       0.98338       0.00222856  -0.00067668
  7780.56       0.939164        1.10021        1.03017       0.99121       0.00119625  -0.000872944
  7784.15       0.940745        1.10129        1.03728       0.99782      -0.00401474  -0.000624253
  7787.69       0.910535        1.10117        1.01253        1.00317      -0.0032553   0.000690464
  7791.28       0.917525        1.09994        1.02506        1.00747       0.000910336   0.000248707
  7794.86       0.917061        1.09766        1.03011        1.01072      -0.00147231  -0.000636851
  7798.44       0.906992        1.09442        1.02555        1.01298      -0.00364569  -0.000277073
  7802.02       0.890984        1.09027        1.01506        1.01435      -0.00345422   5.39491e-05
  7805.61       0.882198        1.08527        1.01183        1.0149      -0.00325845   0.000143946
  7809.2       0.867559        1.07952        1.00272        1.01469      -0.00241939   0.00046721
  7812.81       0.86479        1.07306        1.00551        1.01379       0.000103128  -4.55371e-05
  7816.38       0.868299        1.06606        1.01453        1.01229      -0.00274621  -0.000524624
  7819.99       0.845059        1.05844       0.99686        1.01024      -0.00366629   1.85981e-05
  7823.6       0.841814        1.05036       0.999182        1.00773      -0.00261186  -0.000101844
  7827.22       0.826178        1.04187       0.989125        1.00482      -0.00440253   7.62943e-05
  7830.81       0.810076        1.03314       0.97856        1.00163      -0.00206185   0.000724329
  7834.44       0.811301        1.02409       0.985373       0.998164       0.000823511  -7.8339e-05
  7838.06       0.816043        1.01489       0.995699       0.994542      -0.0026295  -0.000349289
  7841.69       0.792232        1.00557       0.977485       0.990825      -0.00170954   0.000794746
  7845.32       0.803632       0.996249       0.994482       0.987099       0.00314036   0.00133606