File: Dynamic XAS/Dynamic XAS Energy analyzed data/ESweep_0_5 Hz/Same Eo/Normalized Spectra/Ir0_5Hz_ReaddMean_VPhsCorrect_7_202_mV_.csv.nor
# XDI/1.0 Athena/0.9.26
# Element.edge:                  K
# Element.symbol:                Co
# Column.1:                      energy eV
# Column.2:                      norm
# Column.3:                      nbkg
# Column.4:                      flat
# Column.5:                      fbkg
# Column.6:                      nder
# Column.7:                      nsec
# Athena.e0:                     7721.54
# Athena.eshift:                 0
# Athena.rbkg:                   1.0
# Athena.importance:             1
# Athena.standard:               None
# Athena.bkg_kweight:            3
# Athena.edge_step:              1.19308
# Athena.fixed_step:             no
# Athena.pre_edge_range:         -82.964 -19.904
# Athena.pre_edge_line:          0.256586 + 0.000181271 * E
# Athena.normalization_range:    45 125.256
# Athena.post_edge_polynomial:   15.5511 - 0.00164498 * E + 0 * E^2 + 0 * E^3
# Athena.spline_range_energy:    0.000 125.180
# Athena.clamps:                 0 24
# Athena.spline_range_k:         0.000 5.732
# Athena.kweight:                2
# Athena.window:                 hanning
# Athena.phase_correction:       no
# Athena.k_range:                .4 5.35
# Athena.dk:                     .5
# Athena.r_range:                .4 5.1
# Athena.dr:                     .5
# Athena.window:                 hanning
# Athena.plot_multiplier:        1
# Athena.y_offset:               0.2
# ///
#------------------------
#   e         norm        nbkg        flat        fbkg        nder        nsec
  7600.07      -0.216104      -0.0161035  -0.216104      -0.216104       0.0123156  -0.000515931
  7610.64      -0.0858784   0.114122      -0.0858784  -0.0858784   0.00686015  -0.00038194
  7624.56      -0.0481053   0.151895      -0.0481053  -0.0481053   0.00296228  -0.000208724
  7637.2      -0.00720324   0.192797      -0.00720324  -0.00720324   0.00131666  -0.00013333
  7649.7      -0.0150006   0.184999      -0.0150006  -0.0150006  -0.000390044   9.51817e-05
  7662.2      -0.0169539   0.183046      -0.0169539  -0.0169539   0.0036961   2.61553e-05
  7674.73       0.0775276   0.277528       0.0775276   0.0775276   0.000264727  -0.000283411
  7687.33      -0.0103008   0.189699      -0.0103008  -0.0103008  -0.00342658   3.39068e-06
  7700.01      -0.00908602   0.190914      -0.00908602  -0.00908602   0.000350434   0.00102813
  7700.39      -0.00572521   0.194275      -0.00572521  -0.00572521   0.0099977   0.00550004
  7700.72      -0.00199765   0.198002      -0.00199765  -0.00199765   0.00424996  -0.0248589
  7701.07      -0.00282248   0.197178      -0.00282248  -0.00282248  -0.00698094  -0.00330087
  7701.43      -0.00698902   0.193011      -0.00698902  -0.00698902   0.00188984   0.0193594
  7701.8      -0.00144856   0.198551      -0.00144856  -0.00144856   0.00709338  -0.00819381
  7702.15      -0.0018747   0.198125      -0.0018747  -0.0018747  -0.0040179  -0.0194997
  7702.52      -0.0043294   0.195671      -0.0043294  -0.0043294  -0.00688794   0.00157567
  7702.88      -0.00686157   0.193138      -0.00686157  -0.00686157  -0.00287711   0.00916423
  7703.24      -0.00642106   0.193579      -0.00642106  -0.00642106  -0.000225545   0.00885826
  7703.6      -0.00702419   0.192976      -0.00702419  -0.00702419   0.00350969   0.0107615
  7703.96      -0.00389759   0.196102      -0.00389759  -0.00389759   0.00751199   0.00175679
  7704.32      -0.001578   0.198422      -0.001578  -0.001578   0.00478337  -0.012046
  7704.69      -0.000424866   0.199575      -0.000424866  -0.000424866  -0.00123343  -0.0147809
  7705.02      -0.00243523   0.197565      -0.00243523  -0.00243523  -0.00548938   0.00240613
  7705.38      -0.00423449   0.195766      -0.00423449  -0.00423449   0.000436424   0.0307036
  7705.75      -0.00211708   0.197883      -0.00211708  -0.00211708   0.0168936   0.031902
  7706.11       0.00811471   0.208115       0.00811471   0.00811471   0.0237568   0.0176484
  7706.47       0.0150353   0.215035       0.0150353   0.0150353   0.0296358   0.0122901
  7706.83       0.0294228   0.229423       0.0294228   0.0294228   0.0325933  -0.00547641
  7707.2       0.0386655   0.238666       0.0386655   0.0386655   0.0256654  -0.0213573
  7707.56       0.0480559   0.248056       0.0480559   0.0480559   0.017088  -0.0292373
  7707.91       0.0509518   0.250952       0.0509518   0.0509518   0.00464376  -0.0179237
  7708.28       0.0514133   0.251413       0.0514133   0.0514133   0.00412914  -0.00664773
  7708.65       0.0539702   0.25397       0.0539702   0.0539702  -0.000215729  -0.0158662
  7708.98       0.0512619   0.251262       0.0512619   0.0512619  -0.00700893   0.0041422
  7709.29       0.0494564   0.249456       0.0494564   0.0494564   0.00245185   0.0205333
  7709.6       0.0527673   0.252767       0.0527673   0.0527673   0.00559855  -0.0115679
  7709.9       0.0528883   0.252888       0.0528883   0.0528883  -0.00463926  -0.028
  7710.21       0.0499141   0.249914       0.0499141   0.0499141  -0.0116215  -0.00824739
  7710.51       0.0457876   0.245788       0.0457876   0.0457876  -0.00967842   0.0128117
  7710.82       0.043991   0.243991       0.043991   0.043991  -0.00378071   0.0307798
  7711.11       0.0435419   0.243542       0.0435419   0.0435419   0.00860478   0.0182053
  7711.42       0.0490936   0.249094       0.0490936   0.0490936   0.00701504  -0.0219655
  7711.73       0.0478702   0.24787       0.0478702   0.0478702  -0.00494796  -0.0162346
  7712.03       0.0460605   0.24606       0.0460605   0.0460605  -0.00293678  -0.00758223
  7712.33       0.0460846   0.246085       0.0460846   0.0460846  -0.00955796   0.0105247
  7712.64       0.0401823   0.240182       0.0401823   0.0401823   0.00353588   0.0500931
  7712.95       0.0482768   0.248277       0.0482768   0.0482768   0.0214998   0.0384968
  7713.23       0.0528887   0.252889       0.0528887   0.0528887   0.0262875   0.0373529
  7713.54       0.063655   0.263655       0.063655   0.063655   0.0433512   0.0567848
  7713.85       0.0796798   0.27968       0.0796798   0.0796798   0.0613805   0.0464061
  7714.16       0.101895       0.301895       0.101895       0.101895       0.0722622   0.00214109
  7714.47       0.124266       0.324266       0.124266       0.124266       0.0627016  -0.0366244
  7714.78       0.140519       0.340519       0.140519       0.140519       0.0497016  -0.0340337
  7715.08       0.154434       0.354434       0.154434       0.154434       0.0420431  -0.00193798
  7715.39       0.166124       0.366124       0.166124       0.166124       0.0485214  -0.000149566
  7715.67       0.183208       0.383208       0.183208       0.183208       0.0419544  -0.037431
  7715.97       0.190709       0.390709       0.190709       0.190709       0.0265868  -0.036847
  7716.14       0.195624       0.395624       0.195624       0.195624       0.0247469  -0.0363612
  7716.26       0.197712       0.397712       0.197712       0.197712       0.0162966   0.0699552
  7716.37       0.199372       0.399372       0.199372       0.199372       0.0408366   0.251756
  7716.5       0.207676       0.407676       0.207676       0.207676       0.0777251   0.105671
  7716.62       0.219036       0.419036       0.219036       0.219036       0.0675714  -0.0865932
  7716.73       0.223488       0.423488       0.223488       0.223488       0.0574623  -0.0581342
  7716.87       0.23323       0.433229       0.23323       0.23323       0.0532123  -0.060861
  7716.99       0.237057       0.437057       0.237057       0.237057       0.0419427  -0.0380462
  7717.1       0.243044       0.443044       0.243044       0.243044       0.0443095  -0.00849646
  7717.23       0.247913       0.447913       0.247913       0.247913       0.0398611   0.119808
  7717.35       0.25297       0.45297       0.25297       0.25297       0.0741417   0.131423
  7717.46       0.264891       0.464891       0.264891       0.264891       0.069957  -0.157191
  7717.59       0.269899       0.469899       0.269899       0.269899       0.0361014   0.0600406
  7717.71       0.273845       0.473845       0.273845       0.273845       0.0848471   0.311211
  7717.84       0.291111       0.491111       0.291111       0.291111       0.113904      -0.0043221
  7717.96       0.302321       0.502321       0.302321       0.302321       0.0837666  -0.127977
  7718.07       0.310545       0.510545       0.310545       0.310545       0.0842135   0.103213
  7718.21       0.323037       0.523037       0.323037       0.323037       0.109157       0.0328998
  7718.33       0.338271       0.538271       0.338271       0.338271       0.0925701  -0.205859
  7718.44       0.344791       0.544791       0.344791       0.344791       0.06078  -0.0863065
  7718.57       0.353162       0.553162       0.353162       0.353162       0.071425   0.175169
  7718.69       0.36279       0.56279       0.36279       0.36279       0.104923       0.261014
  7718.81       0.377504       0.577504       0.377504       0.377504       0.13198       0.0133631
  7718.94       0.394861       0.594861       0.394861       0.394861       0.10817       0.0163621
  7719.06       0.404654       0.604654       0.404654       0.404654       0.136087       0.102929
  7719.17       0.426434       0.626434       0.426434       0.426434       0.132049      -0.0660162
  7719.3       0.436742       0.636742       0.436742       0.436742       0.120045       0.215966
  7719.42       0.456685       0.656685       0.456685       0.456685       0.186473       0.154374
  7719.53       0.48075       0.68075       0.48075       0.48075       0.156477      -0.253034
  7719.67       0.495178       0.695178       0.495178       0.495178       0.124226       0.0166357
  7719.79       0.512179       0.712179       0.512179       0.512179       0.160686       0.135098
  7719.9       0.53294       0.73294       0.53294       0.53294       0.155974       0.0988054
  7720.03       0.550549       0.750549       0.550549       0.550549       0.184992       0.268939
  7720.15       0.579743       0.779743       0.579743       0.579743       0.224016       0.0212567
  7720.27       0.602745       0.802745       0.602745       0.602745       0.189945      -0.235594
  7720.4       0.625899       0.825899       0.625899       0.625899       0.166767      -0.0805235
  7720.52       0.64427       0.84427       0.64427       0.64427       0.169895       0.0179438
  7720.65       0.668203       0.868203       0.668203       0.668203       0.171235       0.196431
  7720.77       0.687078       0.887078       0.687078       0.687078       0.219003       0.28215
  7720.88       0.719231       0.919231       0.719231       0.719231       0.236976      -0.119969
  7721.01       0.745611       0.945611       0.745611       0.745611       0.18937      -0.168936
  7721.13       0.767331       0.967331       0.767331       0.767331       0.194066       0.0052771
  7721.25       0.790829       0.990829       0.790829       0.790829       0.1906       0.0766514
  7721.38       0.814218        1.01422       0.814218       0.814218       0.212922       0.268531
  7721.5       0.844911        1.04491       0.84485       0.84485       0.258807       0.191044
  7721.61       0.87452        2.2626       0.874631        2.06271       0.257436      -0.073401
  7721.74       0.907725        2.2452       0.908037        2.04551       0.240897       0.00472906
  7721.86       0.934745        2.22978       0.935237        2.03027       0.258618      -0.136736
  7721.97       0.967207        2.21526       0.967871        2.01592       0.209447      -0.420459
  7722.1       0.985431        2.19855       0.986294        1.99941       0.156867      -0.0244872
  7722.23        1.00674        2.18301        1.00779        1.98406       0.203277       0.24298
  7722.36        1.03706        2.16635        1.03832        1.9676       0.218584      -0.0132608
  7722.48        1.06204        2.15122        1.06348        1.95265       0.199922      -0.28521
  7722.59        1.08404        2.13708        1.08566        1.93869       0.15156      -0.447686
  7722.72        1.09917        2.12097        1.10098        1.92279       0.0902386  -0.117686
  7722.85        1.10688        2.10611        1.10887        1.90811       0.121785       0.412723
  7722.96        1.12767        2.09259        1.12984        1.89476       0.186816       0.199388
  7723.05        1.14517        2.08144        1.14749        1.88375       0.16266      -0.238583
  7723.21        1.16915        2.0622        1.17171        1.86476       0.125977      -0.121451
  7723.41        1.18989        2.03958        1.19275        1.84244       0.119545       0.00238695
  7723.6        1.21577        2.01683        1.21893        1.81999       0.126908      -0.047699
  7723.8        1.2399        1.99441        1.24336        1.79787       0.100751      -0.163484
  7724        1.25577        1.97199        1.25953        1.77576       0.0620049  -0.196858
  7724.2        1.26457        1.95013        1.26864        1.7542       0.0224017  -0.138391
  7724.4        1.26464        1.9286        1.26901        1.73297       0.00720188  -0.0214799
  7724.59        1.26741        1.90761        1.27208        1.71228       0.0139386  -0.0325198
  7724.79        1.27012        1.88683        1.27509        1.69181      -0.00557841  -0.109441
  7725.01        1.26509        1.86411        1.2704        1.66942      -0.0315887  -0.0375338
  7725.72        1.24061        1.79265        1.24702        1.59905      -0.040635  -0.0102356
  7726.51        1.20418        1.71896        1.21178        1.52657      -0.0469318   0.000658853
  7727.3        1.16651        1.64908        1.17533        1.4579      -0.0395947   0.00697767
  7728.07        1.14245        1.58637        1.15244        1.39636      -0.0360536   0.00693183
  7728.83        1.11142        1.52788        1.12258        1.33904      -0.0290028   0.0165488
  7729.59        1.09816        1.47353        1.11049        1.28586      -0.0107836   0.0171868
  7730.35        1.09499        1.4233        1.10848        1.23679      -0.00282733   0.00616738
  7731.15        1.09377        1.37484        1.10848        1.18954      -0.00119947   0.00294135
  7731.91        1.09313        1.33198        1.109        1.14786       0.00175235  -0.00406612
  7732.68        1.09645        1.29234        1.1135        1.10939      -0.00742878  -0.00681781
  7733.44        1.08175        1.25642        1.09997        1.07464      -0.00868572   0.00422983
  7734.21        1.08312        1.22328        1.10252        1.04268      -0.000935988  -0.00259731
  7734.98        1.08032        1.1937        1.10088        1.01427      -0.0126726  -0.0102406
  7735.77        1.06334        1.16585        1.08513       0.987635      -0.0169215   0.00662216
  7736.54        1.05387        1.14208        1.07683       0.965039      -0.00232215   0.007829
  7737.31        1.05978        1.12083        1.08392       0.944965      -0.00491184  -0.01135
  7738.08        1.04631        1.10216        1.07162       0.927478      -0.0197898  -0.00770204
  7738.84        1.0294        1.08598        1.05589       0.912462      -0.0167345   0.00642042
  7739.62        1.02057        1.07194        1.04824       0.899613      -0.00991518   0.00099711
  7740.39        1.01409        1.06006        1.04294       0.888912      -0.0151949  -0.00812172
  7741.16       0.997095        1.05017        1.02713       0.880207      -0.0224632  -0.00599419
  7741.95       0.978959        1.04198        1.0102       0.873228      -0.0245699   0.00027536
  7744.45       0.916236        1.02719       0.951307       0.86226      -0.021557   0.00177448
  7746.97       0.870807        1.02548       0.909731       0.864407      -0.0156673   0.0017986
  7749.45       0.837883        1.03191       0.88061       0.874637      -0.0125622   0.000898732
  7751.94       0.808423        1.04157       0.854949       0.888094      -0.0112042   0.000935369
  7754.45       0.78184        1.05099       0.832223       0.901368      -0.00788351   0.00208255
  7756.95       0.768895        1.05943       0.823096       0.913631      -0.000762274   0.00263696
  7759.43       0.778048        1.06699       0.836046       0.924992       0.00523537   0.00170207
  7761.95       0.795062        1.07384       0.856913       0.935689       0.00774467   0.00113211
  7764.47       0.817065        1.07988       0.882775       0.945592       0.010939   0.00067473
  7766.97       0.849953        1.08509       0.919485       0.954625       0.0111305   0.000131537
  7769.46       0.872651        1.08956       0.946005       0.962911       0.0115958  -0.00013127
  7771.99       0.908188        1.09334       0.985407       0.970557       0.0104712  -0.00130922
  7774.49       0.925279        1.09638        1.00633       0.977429       0.00501569  -0.00165133
  7777       0.933316        1.09876        1.0182       0.983647       0.00219807  -0.000670256
  7780.56       0.938631        1.10102        1.02898       0.991366       0.000944555  -0.000842649
  7784.15       0.940072        1.10204        1.03591       0.997878      -0.00382855  -0.00056445
  7787.69       0.911329        1.10189        1.01259        1.00315      -0.00308054   0.000646111
  7791.28       0.918098        1.10063        1.02485        1.00738       0.000780162   0.000240373
  7794.86       0.916922        1.09833        1.02916        1.01057      -0.0013573  -0.00059157
  7798.44       0.908388        1.09509        1.02609        1.01279      -0.00345193  -0.000316859
  7802.02       0.89223        1.09095        1.01541        1.01414      -0.00362379   2.28305e-05
  7805.61       0.882377        1.08598        1.01107        1.01467      -0.00328805   0.000178938
  7809.2       0.868593        1.08027        1.00278        1.01446      -0.00233741   0.000479044
  7812.81       0.865559        1.07387        1.00526        1.01358       0.000158672  -5.00846e-05
  7816.38       0.869731        1.06694        1.0149        1.01212      -0.00269686  -0.000545554
  7819.99       0.846182        1.05941       0.996885        1.01011      -0.00376114   4.35351e-05
  7823.6       0.842561        1.05143       0.998792        1.00766      -0.00238236  -8.79392e-05
  7827.22       0.82896        1.04307       0.990729        1.00483      -0.00439685   9.99432e-06
  7830.81       0.810864        1.03447       0.97813        1.00173      -0.00231032   0.000743317
  7834.44       0.812291        1.02557       0.985104       0.998379       0.000966184  -4.46956e-05
  7838.06       0.817865        1.01652       0.996222       0.994881      -0.00263418  -0.000375048
  7841.69       0.793188        1.00739       0.977101       0.991305      -0.00175366   0.000816113
  7845.32       0.805134       0.998265       0.994603       0.987735       0.0032908   0.00138966