File: Dynamic XAS/Dynamic XAS Energy analyzed data/ESweep_0_5 Hz/Same Eo/Normalized Spectra/Ir0_5Hz_ReaddMean_VPhsCorrect_23_47_mV_.csv.nor
# XDI/1.0 Athena/0.9.26
# Element.edge:                  K
# Element.symbol:                Co
# Column.1:                      energy eV
# Column.2:                      norm
# Column.3:                      nbkg
# Column.4:                      flat
# Column.5:                      fbkg
# Column.6:                      nder
# Column.7:                      nsec
# Athena.e0:                     7721.54
# Athena.eshift:                 0
# Athena.rbkg:                   1.0
# Athena.importance:             1
# Athena.standard:               None
# Athena.bkg_kweight:            3
# Athena.edge_step:              1.19411
# Athena.fixed_step:             no
# Athena.pre_edge_range:         -82.964 -19.904
# Athena.pre_edge_line:          0.220006 + 0.000186033 * E
# Athena.normalization_range:    45 125.256
# Athena.post_edge_polynomial:   15.6258 - 0.00165449 * E + 0 * E^2 + 0 * E^3
# Athena.spline_range_energy:    0.000 125.180
# Athena.clamps:                 0 24
# Athena.spline_range_k:         0.000 5.732
# Athena.kweight:                2
# Athena.window:                 hanning
# Athena.phase_correction:       no
# Athena.k_range:                .4 5.35
# Athena.dk:                     .5
# Athena.r_range:                .4 5.1
# Athena.dr:                     .5
# Athena.window:                 hanning
# Athena.plot_multiplier:        1
# Athena.y_offset:               0.2
# ///
#------------------------
#   e         norm        nbkg        flat        fbkg        nder        nsec
  7600.07      -0.213825      -0.0138247  -0.213825      -0.213825       0.0120059  -0.000494693
  7610.64      -0.086874   0.113126      -0.086874  -0.086874   0.00677505  -0.000368753
  7624.56      -0.0479105   0.152089      -0.0479105  -0.0479105   0.00297555  -0.000205118
  7637.2      -0.00784635   0.192154      -0.00784635  -0.00784635   0.00132731  -0.000129937
  7649.7      -0.0145379   0.185462      -0.0145379  -0.0145379  -0.000291444   9.136e-05
  7662.2      -0.0151321   0.184868      -0.0151321  -0.0151321   0.00361122   1.81328e-05
  7674.73       0.0758654   0.275865       0.0758654   0.0758654   0.000162492  -0.000276282
  7687.33      -0.0110484   0.188952      -0.0110484  -0.0110484  -0.0033323   8.79103e-06
  7700.01      -0.00836527   0.191635      -0.00836527  -0.00836527   0.000384703   0.000906201
  7700.39      -0.00602535   0.193975      -0.00602535  -0.00602535   0.00849996   0.00659441
  7700.72      -0.0023388   0.197661      -0.0023388  -0.0023388   0.00506014  -0.0196238
  7701.07      -0.00256927   0.197431      -0.00256927  -0.00256927  -0.00490308  -0.00628467
  7701.43      -0.0058445   0.194156      -0.0058445  -0.0058445   0.000566597   0.0132163
  7701.8      -0.00215736   0.197843      -0.00215736  -0.00215736   0.00470516  -0.00709185
  7702.15      -0.00245208   0.197548      -0.00245208  -0.00245208  -0.00454663  -0.0140325
  7702.52      -0.00541729   0.194583      -0.00541729  -0.00541729  -0.00535611   0.00377539
  7702.88      -0.00632991   0.19367      -0.00632991  -0.00632991  -0.00181325   0.00666158
  7703.24      -0.00673552   0.193264      -0.00673552  -0.00673552  -0.000513139   0.00603381
  7703.6      -0.00669988   0.1933      -0.00669988  -0.00669988   0.00253713   0.0109902
  7703.96      -0.00491133   0.195089      -0.00491133  -0.00491133   0.00738883   0.000882978
  7704.32      -0.00134297   0.198657      -0.00134298  -0.00134297   0.00317729  -0.0127597
  7704.69      -0.00260462   0.197395      -0.00260462  -0.00260462  -0.00187469  -0.00817833
  7705.02      -0.00264589   0.197354      -0.00264589  -0.00264589  -0.00250665   0.00209192
  7705.38      -0.00434423   0.195656      -0.00434423  -0.00434423  -0.0004229   0.0248002
  7705.75      -0.00295418   0.197046      -0.00295418  -0.00295418   0.0155727   0.0335064
  7706.11       0.00703941   0.207039       0.00703941   0.00703941   0.0240702   0.0166645
  7706.47       0.0144245   0.214425       0.0144245   0.0144245   0.0276044   0.0116609
  7706.83       0.026887   0.226887       0.026887   0.026887   0.0324545  -0.000212566
  7707.2       0.037954   0.237954       0.037954   0.037954   0.0274503  -0.020687
  7707.56       0.046816   0.246816       0.046816   0.046816   0.0174357  -0.0307458
  7707.91       0.0504903   0.25049       0.0504903   0.0504903   0.00534412  -0.0172829
  7708.28       0.0506797   0.25068       0.0506797   0.0506797   0.00494021  -0.00597783
  7708.65       0.0541016   0.254102       0.0541016   0.0541016   0.000974326  -0.0186626
  7708.98       0.0513637   0.251364       0.0513637   0.0513637  -0.00816093   0.00140592
  7709.29       0.048846   0.248846       0.048846   0.048846   0.00187974   0.0245327
  7709.6       0.0525179   0.252518       0.0525179   0.0525179   0.00690212  -0.0113441
  7709.9       0.053077   0.253077       0.053077   0.053077  -0.00507422  -0.0351162
  7710.21       0.0493972   0.249397       0.0493972   0.0493972  -0.0146943  -0.0052301
  7710.51       0.0440987   0.244099       0.0440987   0.0440987  -0.00826981   0.0180384
  7710.82       0.0443361   0.244336       0.0443361   0.0443361  -0.00365485   0.0223279
  7711.11       0.0419277   0.241928       0.0419277   0.0419277   0.00499294   0.0111889
  7711.42       0.0472969   0.247297       0.0472969   0.0472969   0.00298016  -0.0206848
  7711.73       0.0437665   0.243766       0.0437665   0.0437665  -0.0077696  -0.00824286
  7712.03       0.0425342   0.242534       0.0425342   0.0425342  -0.00207271   0.00136336
  7712.33       0.0425063   0.242506       0.0425063   0.0425063  -0.00694068   0.0073607
  7712.64       0.0382656   0.238266       0.0382656   0.0382656   0.00245412   0.0368163
  7712.95       0.0440279   0.244028       0.0440279   0.0440279   0.0158854   0.034803
  7713.23       0.0476539   0.247654       0.0476539   0.0476539   0.0230227   0.0464157
  7713.54       0.0574961   0.257496       0.0574961   0.0574961   0.0430386   0.06167
  7713.85       0.0742518   0.274252       0.0742518   0.0742518   0.0611347   0.0575878
  7714.16       0.0955831   0.295583       0.0955831   0.0955831   0.0789158   0.0119267
  7714.47       0.122943       0.322943       0.122943       0.122943       0.0684935  -0.0551182
  7714.78       0.137775       0.337775       0.137775       0.137775       0.044963  -0.0492251
  7715.08       0.150235       0.350235       0.150235       0.150235       0.0386138   0.00758337
  7715.39       0.161291       0.361291       0.161291       0.161291       0.0495813   0.0129021
  7715.67       0.179637       0.379637       0.179637       0.179637       0.0462648  -0.0582473
  7715.97       0.188402       0.388402       0.188402       0.188402       0.0154484  -0.0551705
  7716.14       0.186851       0.386851       0.186851       0.186851       0.0205002   0.0757634
  7716.26       0.194204       0.394204       0.194204       0.194204       0.0368894   0.0662167
  7716.37       0.195336       0.395336       0.195336       0.195336       0.03573   0.180707
  7716.5       0.202922       0.402922       0.202922       0.202922       0.080982   0.148579
  7716.62       0.215825       0.415825       0.215825       0.215825       0.0733205  -0.170648
  7716.73       0.220079       0.420079       0.220079       0.220079       0.0410504  -0.190011
  7716.87       0.225964       0.425964       0.225964       0.225964       0.0263878  -0.045403
  7716.99       0.226808       0.426808       0.226808       0.226808       0.0294726   0.0717996
  7717.1       0.232861       0.432861       0.232861       0.232861       0.0431889   0.0488305
  7717.23       0.237389       0.437389       0.237389       0.237389       0.0414361   0.161925
  7717.35       0.243178       0.443178       0.243178       0.243178       0.0835082   0.0718863
  7717.46       0.256512       0.456512       0.256512       0.256512       0.057898  -0.122925
  7717.59       0.257189       0.457189       0.257189       0.257189       0.0537603   0.110799
  7717.71       0.269845       0.469845       0.269845       0.269845       0.0853761   0.10393
  7717.84       0.278533       0.478533       0.278533       0.278533       0.0797428   0.0952148
  7717.96       0.289781       0.489781       0.289781       0.289781       0.10918       0.0780964
  7718.07       0.303863       0.503863       0.303863       0.303863       0.0978612  -0.125839
  7718.21       0.313854       0.513854       0.313854       0.313854       0.0782233  -0.122787
  7718.33       0.323732       0.523732       0.323732       0.323732       0.0666734   0.0838811
  7718.44       0.329523       0.529523       0.329523       0.329523       0.0979353   0.114018
  7718.57       0.347726       0.547726       0.347726       0.347726       0.0946078  -0.0159309
  7718.69       0.353364       0.553364       0.353364       0.353364       0.0939208   0.0751025
  7718.81       0.369516       0.569516       0.369516       0.369516       0.112032       0.0616576
  7718.94       0.380587       0.580587       0.380587       0.380587       0.108904       0.1246
  7719.06       0.39685       0.59685       0.39685       0.39685       0.143306       0.0575329
  7719.17       0.413834       0.613834       0.413834       0.413834       0.122251      -0.0183727
  7719.3       0.426557       0.626557       0.426557       0.426557       0.138842       0.150623
  7719.42       0.448823       0.648823       0.448823       0.448823       0.160208      -0.0122418
  7719.53       0.464367       0.664367       0.464367       0.464367       0.135953      -0.0252837
  7719.67       0.482267       0.682267       0.482267       0.482267       0.153988       0.0298947
  7719.79       0.503326       0.703326       0.503326       0.503326       0.143516       0.0173176
  7719.9       0.515993       0.715993       0.515993       0.515993       0.158058       0.26952
  7720.03       0.542208       0.742208       0.542208       0.542208       0.209818       0.193888
  7720.15       0.569077       0.769077       0.569077       0.569077       0.207112      -0.143494
  7720.27       0.590465       0.790465       0.590465       0.590465       0.176384      -0.0977362
  7720.4       0.611938       0.811938       0.611938       0.611938       0.183362      -0.0693134
  7720.52       0.636122       0.836122       0.636122       0.636122       0.159125      -0.0352864
  7720.65       0.65156       0.85156       0.65156       0.65156       0.174575       0.230734
  7720.77       0.679766       0.879766       0.679766       0.679766       0.216808       0.186715
  7720.88       0.702077       0.902077       0.702077       0.702077       0.21808       0.0579597
  7721.01       0.733632       0.933632       0.733632       0.733632       0.231124      -0.15318
  7721.13       0.760782       0.960782       0.760782       0.760782       0.179172      -0.158082
  7721.25       0.775379       0.975379       0.775379       0.775379       0.194291       0.290727
  7721.38       0.808578        1.00858       0.808578       0.808578       0.250691       0.258138
  7721.5       0.839055        1.03905       0.838993       0.838993       0.259858      -0.0895316
  7721.61       0.869125        2.27031       0.869236        2.07042       0.22983      -0.185686
  7721.74       0.895133        2.25279       0.895448        2.05311       0.214551       0.240337
  7721.86       0.922762        2.23727       0.923259        2.03776       0.289915       0.00907137
  7721.97       0.961814        2.22265       0.962482        2.02332       0.216637      -0.605407
  7722.1       0.975189        2.20583       0.976058        2.0067       0.143406       0.0424601
  7722.23       0.997952        2.19018       0.999009        1.99124       0.227337       0.307911
  7722.36        1.03293        2.17341        1.03419        1.97467       0.221616      -0.18471
  7722.48        1.05402        2.15817        1.05547        1.95961       0.180606      -0.189318
  7722.59        1.07537        2.14393        1.077        1.94555       0.177126      -0.232811
  7722.72        1.09742        2.12772        1.09924        1.92954       0.123567      -0.229706
  7722.85        1.10664        2.11275        1.10865        1.91477       0.11901       0.183671
  7722.96        1.12526        2.09913        1.12745        1.90132       0.166546       0.265098
  7723.05        1.14078        2.08791        1.14311        1.89024       0.173355      -0.0997814
  7723.21        1.16947        2.06854        1.17205        1.87112       0.141102      -0.135838
  7723.41        1.19087        2.04577        1.19375        1.84864       0.125133      -0.0172321
  7723.6        1.21827        2.02286        1.22145        1.82604       0.134381      -0.0531921
  7723.8        1.24382        2.00028        1.2473        1.80377       0.104175      -0.166602
  7724        1.25963        1.97771        1.26342        1.7815       0.06824  -0.202203
  7724.2        1.27098        1.95569        1.27507        1.75979       0.0236983  -0.144854
  7724.4        1.26901        1.93401        1.27342        1.73842       0.010878  -0.000171265
  7724.59        1.27526        1.91288        1.27997        1.71758       0.0236308  -0.0803323
  7724.79        1.2783        1.89196        1.28331        1.69697      -0.0206926  -0.140268
  7725.01        1.26665        1.86908        1.272        1.67443      -0.0347208  -0.0199108
  7725.72        1.24587        1.79712        1.25232        1.60357      -0.0392893  -0.00922278
  7726.51        1.20776        1.72292        1.21541        1.53057      -0.0485458  -0.001516
  7727.3        1.16922        1.65255        1.1781        1.46143      -0.0416831   0.00587158
  7728.07        1.14278        1.58939        1.15283        1.39945      -0.039392   0.00824358
  7728.83        1.10903        1.53048        1.12026        1.34172      -0.0290869   0.0190958
  7729.59        1.09836        1.47575        1.11077        1.28816      -0.0102327   0.0173013
  7730.35        1.09344        1.42515        1.10703        1.23874      -0.00273698   0.00751459
  7731.15        1.09411        1.37633        1.10891        1.19114       0.00144498   0.00227122
  7731.91        1.09569        1.33317        1.11168        1.14915       0.000799313  -0.00686829
  7732.68        1.09533        1.29323        1.1125        1.1104      -0.00907725  -0.00614923
  7733.44        1.0818        1.25705        1.10014        1.07539      -0.00861516   0.00467988
  7734.21        1.08211        1.22365        1.10164        1.04318      -0.00189362  -0.00178047
  7734.98        1.07889        1.19385        1.0996        1.01456      -0.0113482  -0.00876298
  7735.77        1.06439        1.16577        1.08633       0.987712      -0.0155726   0.00612696
  7736.54        1.05455        1.14182        1.07767       0.964936      -0.00177174   0.00719469
  7737.31        1.06167        1.12039        1.08598       0.944698      -0.00453597  -0.0121897
  7738.08        1.04757        1.10157        1.07306       0.927064      -0.0205317  -0.00823312
  7738.84        1.03016        1.08525        1.05683       0.911918      -0.0171738   0.0063542
  7739.62        1.02115        1.07109        1.04902       0.898953      -0.0107589   0.00121688
  7740.39        1.01355        1.0591        1.0426       0.888152      -0.0152949  -0.00689641
  7741.16       0.997524        1.04912        1.02777       0.879359      -0.0214139  -0.00593781
  7741.95       0.980055        1.04084        1.01152       0.872304      -0.0245817  -3.41459e-05
  7744.45       0.916626        1.02586       0.951941       0.861173      -0.0215262   0.0017058
  7746.97       0.872058        1.02406       0.911252       0.863251      -0.0160237   0.00161098
  7749.45       0.836491        1.03045       0.879514       0.873477      -0.0134697   0.000879679
  7751.94       0.805167        1.04011       0.852016       0.886962      -0.0116552   0.00112107
  7754.45       0.778192        1.04954       0.828925       0.900277      -0.00786213   0.00221222
  7756.95       0.765746        1.05801       0.820323       0.912588      -0.000563125   0.00269628
  7759.43       0.775391        1.0656       0.833791       0.924002       0.00555185   0.00166033
  7761.95       0.793495        1.07248       0.855775       0.934758       0.00773519   0.00115155
  7764.47       0.81436        1.07856       0.880527       0.944725       0.0113533   0.000668521
  7766.97       0.850466        1.08381       0.92048       0.953827       0.0110898  -1.9066e-05
  7769.46       0.869743        1.08832       0.943607       0.962185       0.0112581   1.06372e-05
  7771.99       0.907004        1.09215       0.984759       0.969907       0.0111433  -0.00122675
  7774.49       0.925749        1.09525        1.00736       0.976855       0.00509249  -0.00177526
  7777       0.932517        1.09767        1.01799       0.983151       0.00224921  -0.000699277
  7780.56       0.939411        1.10001        1.03038       0.990983       0.000845082  -0.000871106
  7784.15       0.938561        1.10111        1.03506       0.997606      -0.00398094  -0.000534676
  7787.69       0.911023        1.10102        1.01299        1.00298      -0.00296769   0.000636088
  7791.28       0.917393        1.09983        1.02489        1.00732       0.000556278   0.000245794
  7794.86       0.915011        1.09759        1.02802        1.0106      -0.00120559  -0.000537599
  7798.44       0.908768        1.09439        1.02729        1.01292      -0.00328971  -0.000346069
  7802.02       0.891479        1.0903        1.01552        1.01434      -0.00368102  -1.81581e-05
  7805.61       0.882346        1.08535        1.01193        1.01493      -0.00342005   0.000145826
  7809.2       0.866893        1.07965        1.00201        1.01477      -0.00263268   0.000513691
  7812.81       0.863403        1.07324        1.00408        1.01391       0.000275964   5.20837e-05
  7816.38       0.868873        1.06628        1.01505        1.01246      -0.00225887  -0.000564204
  7819.99       0.847173        1.05869       0.998923        1.01044      -0.00377784  -6.17437e-05
  7823.6       0.841582        1.05063       0.998898        1.00795      -0.00270491  -7.94858e-05
  7827.22       0.82762        1.04216       0.990512        1.00506      -0.00435244   4.79895e-05
  7830.81       0.810205        1.03343       0.978633        1.00186      -0.00235895   0.000733943
  7834.44       0.8106        1.02436       0.984613       0.998378       0.000942959  -4.21857e-05
  7838.06       0.817038        1.01512       0.996634       0.994719      -0.00266463  -0.000394602
  7841.69       0.791276        1.00576       0.976466       0.990946      -0.00191869   0.000816018
  7845.32       0.803108       0.996355       0.993894       0.987141       0.00325966   0.00142654