File: Dynamic XAS/Dynamic XAS Energy analyzed data/ESweep_0_5 Hz/Same Eo/Normalized Spectra/Ir0_5Hz_ReaddMean_VPhsCorrect_40_-232_mV_.csv.nor
# XDI/1.0 Athena/0.9.26
# Element.edge:                  K
# Element.symbol:                Co
# Column.1:                      energy eV
# Column.2:                      norm
# Column.3:                      nbkg
# Column.4:                      flat
# Column.5:                      fbkg
# Column.6:                      nder
# Column.7:                      nsec
# Athena.e0:                     7721.54
# Athena.eshift:                 0
# Athena.rbkg:                   1.0
# Athena.importance:             1
# Athena.standard:               None
# Athena.bkg_kweight:            3
# Athena.edge_step:              1.19298
# Athena.fixed_step:             no
# Athena.pre_edge_range:         -82.964 -19.904
# Athena.pre_edge_line:          0.020046 + 0.000212042 * E
# Athena.normalization_range:    45 125.256
# Athena.post_edge_polynomial:   15.5644 - 0.00164657 * E + 0 * E^2 + 0 * E^3
# Athena.spline_range_energy:    0.000 125.180
# Athena.clamps:                 0 24
# Athena.spline_range_k:         0.000 5.732
# Athena.kweight:                2
# Athena.window:                 hanning
# Athena.phase_correction:       no
# Athena.k_range:                .4 5.35
# Athena.dk:                     .5
# Athena.r_range:                .4 5.1
# Athena.dr:                     .5
# Athena.window:                 hanning
# Athena.plot_multiplier:        1
# Athena.y_offset:               0.2
# ///
#------------------------
#   e         norm        nbkg        flat        fbkg        nder        nsec
  7600.07      -0.212972      -0.0129723  -0.212972      -0.212972       0.012212  -0.000508218
  7610.64      -0.0838428   0.116157      -0.0838428  -0.0838428   0.00683809  -0.000381752
  7624.56      -0.0455144   0.154486      -0.0455144  -0.0455144   0.00286325  -0.000213733
  7637.2      -0.00779783   0.192202      -0.00779783  -0.00779783   0.00116156  -0.000126457
  7649.7      -0.0163092   0.183691      -0.0163092  -0.0163092  -0.000316271   0.000107316
  7662.2      -0.0157043   0.184296      -0.0157043  -0.0157043   0.00384437   2.05243e-05
  7674.73       0.0799306   0.279931       0.0799306   0.0799306   0.000197534  -0.000293983
  7687.33      -0.0107399   0.18926      -0.0107399  -0.0107399  -0.00354402   6.25844e-06
  7700.01      -0.00965157   0.190348      -0.00965157  -0.00965157   0.000355729   0.0010409
  7700.39      -0.00609512   0.193905      -0.00609512  -0.00609512   0.010047   0.00696719
  7700.72      -0.00252822   0.197472      -0.00252822  -0.00252822   0.00529547  -0.0223208
  7701.07      -0.00247831   0.197522      -0.00247831  -0.00247831  -0.00519809  -0.00721955
  7701.43      -0.00624486   0.193755      -0.00624486  -0.00624486   0.00013349   0.0137629
  7701.8      -0.00238127   0.197619      -0.00238127  -0.00238127   0.00480757  -0.00435791
  7702.15      -0.0027786   0.197221      -0.0027786  -0.0027786  -0.00300856  -0.0138878
  7702.52      -0.00453841   0.195462      -0.00453841  -0.00453841  -0.00514999   0.0012373
  7702.88      -0.00650719   0.193493      -0.00650719  -0.00650719  -0.00211276   0.00646917
  7703.24      -0.00607438   0.193926      -0.00607438  -0.00607438  -0.000446908   0.00409424
  7703.6      -0.00682942   0.193171      -0.00682941  -0.00682941   0.000839195   0.0117641
  7703.96      -0.005471   0.194529      -0.005471  -0.005471   0.00801147   0.00601616
  7704.32      -0.0010211   0.198979      -0.0010211  -0.0010211   0.00520091  -0.0126972
  7704.69      -0.00169514   0.198305      -0.00169514  -0.00169514  -0.00120671  -0.0120142
  7705.02      -0.00185977   0.19814      -0.00185977  -0.00185977  -0.00314898   0.00234028
  7705.38      -0.00388053   0.196119      -0.00388053  -0.00388053   0.000417441   0.027169
  7705.75      -0.00155545   0.198445      -0.00155545  -0.00155545   0.0166572   0.0333189
  7706.11       0.0082959   0.208296       0.0082959   0.0082959   0.0247735   0.0203156
  7706.47       0.016331   0.216331       0.016331   0.016331   0.0313251   0.01197
  7706.83       0.0308186   0.230819       0.0308186   0.0308186   0.0333799  -0.00762385
  7707.2       0.0405315   0.240531       0.0405315   0.0405315   0.0257978  -0.0229004
  7707.56       0.0495478   0.249548       0.0495478   0.0495478   0.0167542  -0.0313411
  7707.91       0.0525778   0.252578       0.0525778   0.0525778   0.00326349  -0.0221483
  7708.28       0.0519073   0.251907       0.0519073   0.0519073   0.000740959  -0.0052263
  7708.65       0.0531194   0.253119       0.0531194   0.0531194  -0.000556931  -0.0129337
  7708.98       0.0515163   0.251516       0.0515163   0.0515163  -0.00833849  -0.00121827
  7709.29       0.0477494   0.247749       0.0477494   0.0477494  -0.0013415   0.0266839
  7709.6       0.0506927   0.250693       0.0506927   0.0506927   0.00804545  -2.26041e-07
  7709.9       0.0526813   0.252681       0.0526813   0.0526813  -0.00134164  -0.0360666
  7710.21       0.0498676   0.249868       0.0498676   0.0498676  -0.0141355  -0.0110186
  7710.51       0.0440445   0.244044       0.0440445   0.0440445  -0.00807402   0.0266966
  7710.82       0.0449263   0.244926       0.0449263   0.0449263   0.00220284   0.0326368
  7711.11       0.045353   0.245353       0.045353   0.045353   0.0113122   0.00806873
  7711.42       0.0516344   0.251634       0.0516344   0.0516344   0.0069876  -0.021433
  7711.73       0.0496643   0.249664       0.0496643   0.0496643  -0.00191194  -0.0115903
  7712.03       0.0504624   0.250462       0.0504624   0.0504624  -0.000117245  -0.00564226
  7712.33       0.049593   0.249593       0.049593   0.049593  -0.00534243   0.0153493
  7712.64       0.0471768   0.247177       0.0471768   0.0471768   0.00932257   0.0382986
  7712.95       0.055373   0.255373       0.055373   0.055373   0.0184027   0.0277929
  7713.23       0.0580528   0.258053       0.0580528   0.0580528   0.0257481   0.0464817
  7713.54       0.0704357   0.270436       0.0704357   0.0704357   0.0455945   0.059301
  7713.85       0.0862302   0.28623       0.0862302   0.0862302   0.0623961   0.0525233
  7714.16       0.109308       0.309308       0.109308       0.109308       0.0783165   0.0159339
  7714.47       0.134551       0.334551       0.134551       0.134551       0.0722274  -0.0431214
  7714.78       0.153801       0.353801       0.153801       0.153801       0.0517537  -0.0567843
  7715.08       0.165966       0.365966       0.165966       0.165966       0.0377593  -0.00498976
  7715.39       0.176796       0.376796       0.176796       0.176796       0.048715   0.0201037
  7715.67       0.194854       0.394854       0.194854       0.194854       0.0496808  -0.0285345
  7715.97       0.205909       0.405909       0.205909       0.205909       0.0319937  -0.0659451
  7716.14       0.209795       0.409795       0.209795       0.209795       0.0188845  -0.0041559
  7716.26       0.211253       0.411253       0.211253       0.211253       0.0308176   0.153067
  7716.37       0.216883       0.416883       0.216883       0.216883       0.0540899   0.133361
  7716.5       0.224451       0.424451       0.224451       0.224451       0.0633576   0.0556349
  7716.62       0.232913       0.432913       0.232913       0.232913       0.0681655  -0.0569215
  7716.73       0.240402       0.440402       0.240402       0.240402       0.050038  -0.0621587
  7716.87       0.245272       0.445272       0.245272       0.245272       0.0528123  -0.0395147
  7716.99       0.253869       0.453869       0.253869       0.253869       0.0399617  -0.113636
  7717.1       0.254623       0.454623       0.254623       0.254623       0.0262216   0.113473
  7717.23       0.260293       0.460293       0.260293       0.260293       0.0677627   0.331309
  7717.35       0.271496       0.471496       0.271496       0.271496       0.108718      -0.0413985
  7717.46       0.28519       0.48519       0.28519       0.28519       0.0582824  -0.265233
  7717.59       0.2856       0.4856       0.2856       0.2856       0.0445312   0.159455
  7717.71       0.296233       0.496233       0.296233       0.296233       0.0978272   0.162456
  7717.84       0.310057       0.510057       0.310057       0.310057       0.0851453  -0.0671522
  7717.96       0.31752       0.51752       0.31752       0.31752       0.0810392   0.17835
  7718.07       0.328858       0.528858       0.328858       0.328858       0.126522       0.143851
  7718.21       0.348644       0.548644       0.348644       0.348644       0.116426      -0.255096
  7718.33       0.35843       0.55843       0.35843       0.35843       0.0617279  -0.15102
  7718.44       0.36315       0.56315       0.36315       0.36315       0.0809368   0.204553
  7718.57       0.37826       0.57826       0.37826       0.37826       0.111843       0.0473126
  7718.69       0.391335       0.591335       0.391335       0.391335       0.0928596  -0.0876578
  7718.81       0.399803       0.599803       0.399803       0.399803       0.0915067   0.196492
  7718.94       0.413571       0.613571       0.413571       0.413571       0.140607       0.334297
  7719.06       0.435096       0.635096       0.435096       0.435096       0.175415      -0.065307
  7719.17       0.454267       0.654267       0.454267       0.454267       0.125456      -0.276539
  7719.3       0.465582       0.665582       0.465582       0.465582       0.108216       0.100974
  7719.42       0.481538       0.681538       0.481538       0.481538       0.150901       0.155888
  7719.53       0.501194       0.701194       0.501194       0.501194       0.145006      -0.0502024
  7719.67       0.517209       0.717209       0.517209       0.517209       0.138552       0.118303
  7719.79       0.536248       0.736248       0.536248       0.536248       0.174936       0.237255
  7719.9       0.558319       0.758319       0.558319       0.558319       0.194307      -0.00148603
  7720.03       0.584047       0.784047       0.584047       0.584047       0.174571       0.0882517
  7720.15       0.602486       0.802486       0.602486       0.602486       0.216634       0.079707
  7720.27       0.634523       0.834523       0.634523       0.634523       0.193142      -0.31213
  7720.4       0.649419       0.849419       0.649419       0.649419       0.140787      -0.135201
  7720.52       0.669579       0.869579       0.669579       0.669579       0.159477       0.183634
  7720.65       0.689129       0.889129       0.689129       0.689129       0.186511       0.336234
  7720.77       0.716207       0.916207       0.716207       0.716207       0.243536       0.0992322
  7720.88       0.745873       0.945873       0.745873       0.745873       0.209632      -0.197637
  7721.01       0.767986       0.967986       0.767986       0.767986       0.194719      -0.0441105
  7721.13       0.795332       0.995332       0.795332       0.795332       0.198428       0.0110545
  7721.25       0.81422        1.01422       0.81422       0.81422       0.197295       0.112309
  7721.38       0.843866        1.04387       0.843866       0.843866       0.226056       0.211279
  7721.5       0.871638        1.07164       0.871576       0.871576       0.25096      -0.0521989
  7721.61       0.90234        2.22894       0.902452        2.02905       0.213894      -0.148152
  7721.74       0.923828        2.21203       0.924146        2.01235       0.214811       0.21189
  7721.86       0.956043        2.19704       0.956544        1.99755       0.266867      -0.0846137
  7721.97       0.985208        2.18294       0.985884        1.98361       0.19535      -0.547907
  7722.1        1.00332        2.1667        1.0042        1.96758       0.134273       0.00343391
  7722.23        1.01904        2.1516        1.02011        1.95267       0.196215       0.269512
  7722.36        1.05316        2.13541        1.05443        1.93669       0.202729      -0.17257
  7722.48        1.07034        2.1207        1.0718        1.92217       0.152555      -0.253068
  7722.59        1.08901        2.10696        1.09065        1.9086       0.143258      -0.206575
  7722.72        1.10543        2.09132        1.10728        1.89316       0.101944      -0.152385
  7722.85        1.1148        2.07687        1.11683        1.87891       0.104705       0.176813
  7722.96        1.12993        2.06373        1.13214        1.86594       0.143318       0.201509
  7723.05        1.14418        2.0529        1.14653        1.85525       0.146014      -0.119386
  7723.21        1.16717        2.03421        1.16977        1.83681       0.112875      -0.119247
  7723.41        1.18425        2.01223        1.18716        1.81513       0.103681      -0.00432284
  7723.6        1.2076        1.99012        1.21082        1.79333       0.111189      -0.0271541
  7723.8        1.22806        1.96833        1.23158        1.77185       0.0929825  -0.122551
  7724        1.24452        1.94654        1.24835        1.75038       0.0625363  -0.184292
  7724.2        1.25295        1.9253        1.25709        1.72944       0.0196344  -0.153506
  7724.4        1.25229        1.90438        1.25674        1.70883       0.0017481  -0.0301044
  7724.59        1.25364        1.88398        1.25839        1.68873       0.00777329  -0.024976
  7724.79        1.25535        1.86379        1.26041        1.66885      -0.00806749  -0.0951764
  7725.01        1.25028        1.84171        1.25568        1.64712      -0.0318201  -0.0311852
  7725.72        1.22563        1.77227        1.23214        1.57879      -0.0371945  -0.00605561
  7726.51        1.19453        1.70066        1.20226        1.5084      -0.0408974   0.000738534
  7727.3        1.16105        1.63275        1.17003        1.44173      -0.0360283   0.00434937
  7728.07        1.13836        1.57181        1.14852        1.38198      -0.0341168   0.00564387
  7728.83        1.10892        1.51497        1.12028        1.32633      -0.0274045   0.0147816
  7729.59        1.09651        1.46216        1.10906        1.2747      -0.0115452   0.0144382
  7730.35        1.09134        1.41334        1.10507        1.22707      -0.00541506   0.00484186
  7731.15        1.0881        1.36624        1.10306        1.18121      -0.00402099   0.00406042
  7731.91        1.08508        1.3246        1.10123        1.14075       0.000907009  -0.00231173
  7732.68        1.08949        1.28607        1.10684        1.10342      -0.00756256  -0.00624742
  7733.44        1.0735        1.25116        1.09204        1.0697      -0.0086578   0.00463428
  7734.21        1.0762        1.21895        1.09594        1.0387      -0.000448943  -0.00172591
  7734.98        1.07281        1.1902        1.09374        1.01114      -0.0113071  -0.00909943
  7735.77        1.05855        1.16313        1.08072       0.985306      -0.0146532   0.00774472
  7736.54        1.04991        1.14003        1.07327       0.963397       0.000797919   0.00672172
  7737.31        1.05977        1.11937        1.08434       0.943938      -0.00434204  -0.0147937
  7738.08        1.04322        1.10123        1.06899       0.926993      -0.0219696  -0.00855544
  7738.84        1.02605        1.08549        1.053       0.912449      -0.0174746   0.00749319
  7739.62        1.01635        1.07185        1.04451       0.90001      -0.010445   0.00150021
  7740.39        1.00992        1.06029        1.03928       0.889659      -0.0151583  -0.00699838
  7741.16       0.992928        1.05068        1.0235       0.881246      -0.0212575  -0.00547888
  7741.95       0.976672        1.04271        1.00847       0.874512      -0.0237273  -0.000108085
  7744.45       0.914841        1.02831       0.950537       0.864003      -0.0216133   0.0016016
  7746.97       0.868238        1.02662       0.907856       0.866238      -0.0156921   0.00187855
  7749.45       0.836365        1.03284       0.879853       0.876323      -0.0122186   0.000991752
  7751.94       0.80756        1.04219       0.854915       0.889542      -0.010767   0.00101725
  7754.45       0.782509        1.0513       0.833789       0.902584      -0.00713037   0.00206333
  7756.95       0.771809        1.05947       0.826974       0.91464      -0.000421511   0.00252249
  7759.43       0.780412        1.06678       0.839443       0.925816       0.00541901   0.00162468
  7761.95       0.798893        1.07339       0.861845       0.936346       0.00769862   0.0010833
  7764.47       0.819197        1.07922       0.886077       0.9461       0.0108767   0.000533929
  7766.97       0.853472        1.08423       0.924242       0.955005       0.0103779  -7.44789e-05
  7769.46       0.871024        1.08852       0.945685       0.963181       0.0105047   0.000119272
  7771.99       0.906227        1.09214       0.984821       0.97073       0.0109769  -0.00110465
  7774.49       0.926194        1.09503        1.00868       0.977521       0.00495279  -0.00189717
  7777       0.93104        1.09727        1.01744       0.983672       0.00147206  -0.000685719
  7780.56       0.935135        1.09936        1.02709       0.991316       0.000787736  -0.000734811
  7784.15       0.936674        1.10023        1.03422       0.997776      -0.00378332  -0.000521713
  7787.69       0.908156        1.09995        1.01122        1.00301      -0.0029326   0.000646859
  7791.28       0.915756        1.09857        1.02441        1.00723       0.000830727   0.000209797
  7794.86       0.914112        1.09617        1.02834        1.01041      -0.00142857  -0.000597409
  7798.44       0.905536        1.09283        1.02534        1.01263      -0.00344314  -0.00029815
  7802.02       0.889483        1.08861        1.01486        1.01399      -0.00356124   3.01565e-05
  7805.61       0.879973        1.08354        1.01096        1.01453      -0.00322667   0.00017393
  7809.2       0.866287        1.07775        1.00286        1.01433      -0.00231086   0.000443193
  7812.81       0.863347        1.07126        1.00554        1.01345      -3.79008e-05  -6.99254e-05
  7816.38       0.866015        1.06422        1.01377        1.01198      -0.00281271  -0.000467747
  7819.99       0.843138        1.05658       0.996525        1.00996      -0.00339866   4.92465e-05
  7823.6       0.841463        1.04847        1.00048        1.00748      -0.00245695  -0.000173208
  7827.22       0.825376        1.03995       0.990026        1.0046      -0.00465078   5.26412e-05
  7830.81       0.807935        1.03119       0.97818        1.00143      -0.00207746   0.000772279
  7834.44       0.810387        1.02209       0.986278       0.997981       0.000921207  -7.24181e-05
  7838.06       0.81461        1.01282       0.996144       0.994357      -0.00260221  -0.000379198
  7841.69       0.791516        1.00343       0.978705       0.990623      -0.00182874   0.000730958
  7845.32       0.801334       0.994014       0.994178       0.986859       0.00270455   0.00124884