File: Dynamic XAS/Dynamic XAS Energy analyzed data/ESweep_0_5 Hz/Same Eo/Normalized Spectra/Ir0_5Hz_ReaddMean_VPhsCorrect_31_-182_mV_.csv.nor
# XDI/1.0 Athena/0.9.26
# Element.edge:                  K
# Element.symbol:                Co
# Column.1:                      energy eV
# Column.2:                      norm
# Column.3:                      nbkg
# Column.4:                      flat
# Column.5:                      fbkg
# Column.6:                      nder
# Column.7:                      nsec
# Athena.e0:                     7721.54
# Athena.eshift:                 0
# Athena.rbkg:                   1.0
# Athena.importance:             1
# Athena.standard:               None
# Athena.bkg_kweight:            3
# Athena.edge_step:              1.19317
# Athena.fixed_step:             no
# Athena.pre_edge_range:         -82.964 -19.904
# Athena.pre_edge_line:          0.099930 + 0.000201589 * E
# Athena.normalization_range:    45 125.256
# Athena.post_edge_polynomial:   15.5584 - 0.00164588 * E + 0 * E^2 + 0 * E^3
# Athena.spline_range_energy:    0.000 125.180
# Athena.clamps:                 0 24
# Athena.spline_range_k:         0.000 5.732
# Athena.kweight:                2
# Athena.window:                 hanning
# Athena.phase_correction:       no
# Athena.k_range:                .4 5.35
# Athena.dk:                     .5
# Athena.r_range:                .4 5.1
# Athena.dr:                     .5
# Athena.window:                 hanning
# Athena.plot_multiplier:        1
# Athena.y_offset:               0.2
# ///
#------------------------
#   e         norm        nbkg        flat        fbkg        nder        nsec
  7600.07      -0.212453      -0.0124533  -0.212453      -0.212453       0.0121242  -0.000510334
  7610.64      -0.0842517   0.115748      -0.0842517  -0.0842517   0.00672796  -0.000376954
  7624.56      -0.0476923   0.152308      -0.0476923  -0.0476923   0.00289299  -0.000204386
  7637.2      -0.00741665   0.192583      -0.00741665  -0.00741665   0.00129967  -0.000129913
  7649.7      -0.0150147   0.184985      -0.0150147  -0.0150147  -0.000373405   9.71665e-05
  7662.2      -0.0167514   0.183249      -0.0167514  -0.0167514   0.00372874   2.33993e-05
  7674.73       0.0783305   0.278331       0.0783305   0.0783305   0.000212373  -0.000285475
  7687.33      -0.011414   0.188586      -0.011414  -0.011414  -0.00344581   8.74913e-06
  7700.01      -0.00876923   0.191231      -0.00876923  -0.00876923   0.000433525   0.000984571
  7700.39      -0.00575352   0.194246      -0.00575352  -0.00575352   0.00940973   0.00604227
  7700.72      -0.00209773   0.197902      -0.00209773  -0.00209773   0.0047175  -0.0224412
  7701.07      -0.00253147   0.197469      -0.00253147  -0.00253147  -0.00591763  -0.00606209
  7701.43      -0.00632884   0.193671      -0.00632884  -0.00632884   0.000383101   0.0165827
  7701.8      -0.00225295   0.197747      -0.00225295  -0.00225295   0.006138  -0.00555093
  7702.15      -0.00190334   0.198097      -0.00190334  -0.00190334  -0.00361912  -0.0149327
  7702.52      -0.00484786   0.195152      -0.00484786  -0.00484786  -0.00456877   0.00252168
  7702.88      -0.00521113   0.194789      -0.00521113  -0.00521113  -0.00179343   0.00210027
  7703.24      -0.00615168   0.193848      -0.00615168  -0.00615168  -0.00304187   0.00737896
  7703.6      -0.00740431   0.192596      -0.00740431  -0.00740431   0.0035268   0.016872
  7703.96      -0.00361591   0.196384      -0.00361591  -0.00361591   0.00908913  -0.00111403
  7704.32      -0.000814693   0.199185      -0.000814693  -0.000814693   0.00271913  -0.0172922
  7704.69      -0.00164182   0.198358      -0.00164182  -0.00164182  -0.00346504  -0.00941183
  7705.02      -0.00322289   0.196777      -0.00322289  -0.00322289  -0.00382209   0.00725439
  7705.38      -0.00429436   0.195706      -0.00429436  -0.00429436   0.00156951   0.029315
  7705.75      -0.00207872   0.197921      -0.00207872  -0.00207872   0.0175486   0.0319176
  7706.11       0.00853365   0.208534       0.00853365   0.00853365   0.0249013   0.016589
  7706.47       0.0159   0.2159       0.0159   0.0159   0.0295258   0.0116651
  7706.83       0.0297627   0.229763       0.0297627   0.0297627   0.0332885  -0.00554647
  7707.2       0.0400342   0.240034       0.0400342   0.0400342   0.0255046  -0.0217823
  7707.56       0.0482791   0.248279       0.0482791   0.0482791   0.0174746  -0.0298403
  7707.91       0.0525984   0.252598       0.0525984   0.0525984   0.00404947  -0.0214957
  7708.28       0.0512069   0.251207       0.0512069   0.0512069   0.00193317  -0.00503753
  7708.65       0.0540116   0.254012       0.0540116   0.0540116   0.000367028  -0.0135412
  7708.98       0.0514645   0.251465       0.0514645   0.0514645  -0.00757278   0.00305491
  7709.29       0.0491347   0.249135       0.0491347   0.0491347   0.00233439   0.0201346
  7709.6       0.0528978   0.252898       0.0528978   0.0528978   0.00478983  -0.0135771
  7709.9       0.0520708   0.252071       0.0520708   0.0520708  -0.00598835  -0.0271445
  7710.21       0.049215   0.249215       0.049215   0.049215  -0.011904  -0.00119246
  7710.51       0.0447975   0.244797       0.0447975   0.0447975  -0.00671694   0.0178729
  7710.82       0.0451042   0.245104       0.0451042   0.0451042  -0.000965831   0.0253195
  7711.11       0.0442238   0.244224       0.0442238   0.0442238   0.00832287   0.0108239
  7711.42       0.0500397   0.25004       0.0500397   0.0500397   0.00545273  -0.0227073
  7711.73       0.0475881   0.247588       0.0475881   0.0475881  -0.00568752  -0.00615018
  7712.03       0.0465533   0.246553       0.0465533   0.0465533   0.00168267   0.00051449
  7712.33       0.0486112   0.248611       0.0486112   0.0486112  -0.00537471  -0.000876465
  7712.64       0.0432478   0.243248       0.0432478   0.0432478   0.00114364   0.0383297
  7712.95       0.0493202   0.24932       0.0493202   0.0493202   0.0183897   0.0431309
  7713.23       0.0541161   0.254116       0.0541161   0.0541161   0.026634   0.0488711
  7713.54       0.0649011   0.264901       0.0649011   0.0649011   0.0469793   0.0615484
  7713.85       0.0831493   0.283149       0.0831493   0.0831493   0.0646709   0.0422522
  7714.16       0.105191       0.305191       0.105191       0.105191       0.0733024   0.000212295
  7714.47       0.128377       0.328377       0.128377       0.128377       0.0648019  -0.0418804
  7714.78       0.145109       0.345109       0.145109       0.145109       0.047504  -0.0364923
  7715.08       0.157212       0.357212       0.157212       0.157212       0.0426511   0.00360886
  7715.39       0.171084       0.371084       0.171084       0.171084       0.0497018  -0.00124194
  7715.67       0.186685       0.386685       0.186685       0.186685       0.0419146  -0.0420905
  7715.97       0.195645       0.395646       0.195646       0.195646       0.0250368  -0.0390841
  7716.14       0.198377       0.398377       0.198377       0.198377       0.0236623   0.0131871
  7716.26       0.202342       0.402342       0.202342       0.202342       0.0287688   0.101132
  7716.37       0.204994       0.404994       0.204994       0.204994       0.0469226   0.191814
  7716.5       0.213791       0.413791       0.213791       0.213791       0.0755714   0.069786
  7716.62       0.224114       0.424114       0.224114       0.224114       0.0645785  -0.081057
  7716.73       0.228902       0.428902       0.228902       0.228902       0.0566041  -0.0681832
  7716.87       0.238095       0.438095       0.238095       0.238095       0.0477372  -0.0285714
  7716.99       0.241075       0.441075       0.241075       0.241075       0.0493184   0.0306442
  7717.1       0.249635       0.449635       0.249635       0.249635       0.054908  -0.0862366
  7717.23       0.254528       0.454528       0.254528       0.254528       0.0281904   0.0510638
  7717.35       0.256655       0.456655       0.256655       0.256655       0.0676229   0.21667
  7717.46       0.270014       0.470013       0.270014       0.270014       0.0778078  -0.0989541
  7717.59       0.275484       0.475484       0.275484       0.275484       0.043676   0.0367029
  7717.71       0.280845       0.480845       0.280845       0.280845       0.0869102   0.30053
  7717.84       0.297212       0.497212       0.297212       0.297212       0.118808      -0.0261767
  7717.96       0.310547       0.510547       0.310547       0.310547       0.080366  -0.166503
  7718.07       0.315857       0.515857       0.315857       0.315857       0.0801798   0.115156
  7718.21       0.330271       0.530272       0.330272       0.330272       0.108694       0.0644999
  7718.33       0.343465       0.543465       0.343465       0.343465       0.0965628  -0.179052
  7718.44       0.352964       0.552964       0.352964       0.352964       0.0666172  -0.0801745
  7718.57       0.359786       0.559786       0.359786       0.359786       0.0769201   0.179918
  7718.69       0.372348       0.572348       0.372348       0.372348       0.111957       0.223518
  7718.81       0.38576       0.58576       0.38576       0.38576       0.128776      -0.000367781
  7718.94       0.40364       0.60364       0.40364       0.40364       0.111867       0.0042922
  7719.06       0.413839       0.613839       0.413839       0.413839       0.129854       0.0855161
  7719.17       0.433766       0.633766       0.433766       0.433766       0.131707      -0.0424593
  7719.3       0.445844       0.645844       0.445844       0.445844       0.119536       0.21674
  7719.42       0.463889       0.663889       0.463889       0.463889       0.186325       0.173281
  7719.53       0.489816       0.689816       0.489816       0.489816       0.16043      -0.283509
  7719.67       0.503355       0.703355       0.503355       0.503355       0.116582      -0.0411816
  7719.79       0.519312       0.719312       0.519312       0.519312       0.150011       0.207161
  7719.9       0.538608       0.738608       0.538608       0.538608       0.165265       0.15939
  7720.03       0.559967       0.759967       0.559967       0.559967       0.189221       0.226245
  7720.15       0.586481       0.786481       0.586481       0.586481       0.222505       0.0668902
  7720.27       0.611811       0.811811       0.611811       0.611811       0.204807      -0.236743
  7720.4       0.636249       0.836249       0.636249       0.636249       0.164977      -0.147328
  7720.52       0.65289       0.85289       0.65289       0.65289       0.168122       0.0232858
  7720.65       0.678111       0.878111       0.678111       0.678111       0.170775       0.141966
  7720.77       0.695583       0.895583       0.695583       0.695583       0.203614       0.310618
  7720.88       0.725553       0.925553       0.725553       0.725553       0.243149      -0.0149322
  7721.01       0.755641       0.955641       0.755641       0.755641       0.199925      -0.251344
  7721.13       0.776334       0.976334       0.776334       0.776334       0.179307      -0.0204536
  7721.25       0.79742       0.99742       0.79742       0.79742       0.19516       0.167141
  7721.38       0.824343        1.02434       0.824343       0.824343       0.220424       0.241128
  7721.5       0.853407        1.05341       0.853345       0.853345       0.256406       0.184321
  7721.61       0.884086        2.24615       0.884197        2.04626       0.263371      -0.134394
  7721.74       0.91767        2.229       0.917986        2.02932       0.223614      -0.110547
  7721.86       0.939989        2.21381       0.940488        2.01431       0.235734      -0.0959486
  7721.97       0.971889        2.1995       0.972561        2.00018       0.201546      -0.314446
  7722.1       0.988764        2.18304       0.989637        1.98391       0.159638       0.0100116
  7722.23        1.01212        2.16773        1.01318        1.96879       0.204069       0.199072
  7722.36        1.0406        2.15131        1.04186        1.95257       0.210202      -0.0472342
  7722.48        1.0653        2.13639        1.06675        1.93785       0.192118      -0.262341
  7722.59        1.08574        2.12246        1.08738        1.92409       0.148552      -0.409718
  7722.72        1.10169        2.10659        1.10353        1.90842       0.0917376  -0.14553
  7722.85        1.10895        2.09195        1.11098        1.89397       0.111733       0.380595
  7722.96        1.12784        2.07862        1.13004        1.88081       0.180797       0.258811
  7723.05        1.14602        2.06763        1.14836        1.86997       0.164789      -0.251575
  7723.21        1.16986        2.04867        1.17245        1.85126       0.116645      -0.156769
  7723.41        1.18743        2.02638        1.19032        1.82927       0.109137       0.0187374
  7723.6        1.21242        2.00396        1.21562        1.80716       0.123953      -0.0275554
  7723.8        1.23626        1.98187        1.23976        1.78537       0.0982797  -0.160181
  7724        1.25144        1.95977        1.25525        1.76358       0.0603609  -0.193133
  7724.2        1.26029        1.93823        1.2644        1.74234       0.0214129  -0.146297
  7724.4        1.25992        1.91701        1.26434        1.72143       0.0024273  -0.0323678
  7724.59        1.26124        1.89632        1.26597        1.70105       0.00866003  -0.008204
  7724.79        1.26332        1.87585        1.26835        1.68088      -0.000796868  -0.0986911
  7725.01        1.26091        1.85346        1.26628        1.65883      -0.0323955  -0.0421804
  7725.72        1.23307        1.78303        1.23954        1.5895      -0.0401934  -0.00778116
  7726.51        1.20066        1.7104        1.20835        1.51809      -0.0440594   0.000924358
  7727.3        1.1635        1.64153        1.17242        1.45045      -0.0387338   0.00607036
  7728.07        1.14028        1.57972        1.15038        1.38982      -0.0345957   0.00658959
  7728.83        1.11063        1.52206        1.12192        1.33334      -0.0286649   0.015816
  7729.59        1.09651        1.46848        1.10897        1.28095      -0.0104447   0.0169427
  7730.35        1.09473        1.41896        1.10837        1.23261      -0.00286124   0.00512456
  7731.15        1.09206        1.37118        1.10693        1.18606      -0.00248112   0.00235535
  7731.91        1.09086        1.32893        1.10692        1.14499       0.000806039  -0.0039341
  7732.68        1.09329        1.28984        1.11054        1.10708      -0.00850816  -0.00557573
  7733.44        1.07784        1.25442        1.09627        1.07285      -0.00773041   0.00535258
  7734.21        1.08143        1.22173        1.10105        1.04136      -0.00029195  -0.00351319
  7734.98        1.07739        1.19256        1.09819        1.01336      -0.0131232  -0.0103092
  7735.77        1.06094        1.16508        1.08298       0.987118      -0.0163846   0.00778623
  7736.54        1.05178        1.14163        1.07501       0.964852      -0.000953276   0.00784985
  7737.31        1.05948        1.12065        1.0839       0.94507      -0.00434293  -0.0122445
  7738.08        1.0451        1.10223        1.0707       0.927837      -0.0197976  -0.00869202
  7738.84        1.02909        1.08625        1.05588       0.913038      -0.0176852   0.00545818
  7739.62        1.0179        1.07239        1.04589       0.900374      -0.0114029   0.00170889
  7740.39        1.01148        1.06064        1.04067       0.889827      -0.0150467  -0.00538375
  7741.16       0.99465        1.05086        1.02503       0.881245      -0.0197208  -0.00555497
  7741.95       0.980641        1.04276        1.01225       0.874364      -0.0237346  -0.000694982
  7744.45       0.91654        1.02807       0.952016       0.863544      -0.022008   0.00152149
  7746.97       0.870227        1.02627       0.909601       0.865648      -0.0161013   0.00187631
  7749.45       0.836017        1.0325       0.879237       0.875722      -0.0126246   0.00110318
  7751.94       0.807533        1.04192       0.854596       0.888982      -0.0106229   0.000987759
  7754.45       0.782881        1.05111       0.833846       0.902071      -0.00768383   0.0019663
  7756.95       0.769007        1.05934       0.823833       0.914171      -0.000763892   0.00262115
  7759.43       0.779081        1.06672       0.837749       0.92539       0.00535638   0.00164768
  7761.95       0.795778        1.0734       0.858343       0.935962       0.00747123   0.00117474
  7764.47       0.816721        1.07929       0.883189       0.945757       0.0112747   0.000627955
  7766.97       0.852354        1.08437       0.922689       0.9547       0.0106223  -6.69989e-05
  7769.46       0.869769        1.08871       0.94397       0.962912       0.0109401   5.34249e-05
  7771.99       0.907296        1.09239       0.985406       0.970497       0.0108906  -0.00112126
  7774.49       0.924505        1.09534        1.00649       0.977322       0.0053047  -0.00175152
  7777       0.933872        1.09764        1.01974       0.983503       0.00211547  -0.00073798
  7780.56       0.937354        1.0998        1.02874       0.99119       0.000822204  -0.000841588
  7784.15       0.939753        1.10075        1.03669       0.997687      -0.00390356  -0.000584067
  7787.69       0.909518        1.10053        1.01195        1.00296      -0.00334278   0.000648229
  7791.28       0.915908        1.09921        1.02389        1.0072       0.000720256   0.000255229
  7794.86       0.914681        1.09688        1.02821        1.01041      -0.00151304  -0.000580552
  7798.44       0.905084        1.09359        1.02415        1.01266      -0.00343301  -0.000247029
  7802.02       0.890125        1.08942        1.01473        1.01403      -0.00328004   3.56861e-05
  7805.61       0.88154        1.08441        1.01172        1.01458      -0.00317686   0.00013205
  7809.2       0.867287        1.07865        1.00302        1.01439      -0.00233073   0.000424137
  7812.81       0.86477        1.0722        1.00609        1.01352      -0.000125188  -8.82785e-05
  7816.38       0.866388        1.0652        1.01324        1.01205      -0.0029643  -0.000476366
  7819.99       0.843472        1.05758       0.995915        1.01002      -0.00354788   7.54194e-05
  7823.6       0.840758        1.0495       0.998793        1.00753      -0.00241947  -8.84667e-05
  7827.22       0.825982        1.041       0.989618        1.00464      -0.0041874   4.44378e-05
  7830.81       0.810571        1.03225       0.979768        1.00145      -0.00209912   0.000705248
  7834.44       0.810836        1.02316       0.985644       0.997973       0.000900963  -6.67996e-05
  7838.06       0.8171        1.0139       0.997516       0.994319      -0.00258315  -0.000406855
  7841.69       0.792103        1.00451       0.97814       0.990549      -0.00204955   0.000739684
  7845.32       0.80222       0.995086       0.993877       0.986743       0.00278696   0.00133237