File: Dynamic XAS/Dynamic XAS Energy analyzed data/ESweep_0_5 Hz/Same Eo/Normalized Spectra/Ir0_5Hz_ReaddMean_VPhsCorrect_9_232_mV_.csv.nor
# XDI/1.0 Athena/0.9.26
# Element.edge:                  K
# Element.symbol:                Co
# Column.1:                      energy eV
# Column.2:                      norm
# Column.3:                      nbkg
# Column.4:                      flat
# Column.5:                      fbkg
# Column.6:                      nder
# Column.7:                      nsec
# Athena.e0:                     7721.54
# Athena.eshift:                 0
# Athena.rbkg:                   1.0
# Athena.importance:             1
# Athena.standard:               None
# Athena.bkg_kweight:            3
# Athena.edge_step:              1.19447
# Athena.fixed_step:             no
# Athena.pre_edge_range:         -82.964 -19.904
# Athena.pre_edge_line:          0.238154 + 0.00018365 * E
# Athena.normalization_range:    45 125.256
# Athena.post_edge_polynomial:   15.6287 - 0.00165485 * E + 0 * E^2 + 0 * E^3
# Athena.spline_range_energy:    0.000 125.180
# Athena.clamps:                 0 24
# Athena.spline_range_k:         0.000 5.732
# Athena.kweight:                2
# Athena.window:                 hanning
# Athena.phase_correction:       no
# Athena.k_range:                .4 5.35
# Athena.dk:                     .5
# Athena.r_range:                .4 5.1
# Athena.dr:                     .5
# Athena.window:                 hanning
# Athena.plot_multiplier:        1
# Athena.y_offset:               0.2
# ///
#------------------------
#   e         norm        nbkg        flat        fbkg        nder        nsec
  7600.07      -0.215189      -0.0151887  -0.215189      -0.215189       0.0121402  -0.000505961
  7610.64      -0.0868178   0.113182      -0.0868178  -0.0868178   0.00679021  -0.000373591
  7624.56      -0.0489033   0.151097      -0.0489032  -0.0489032   0.00299138  -0.00020412
  7637.2      -0.00736975   0.19263      -0.00736975  -0.00736975   0.00136899  -0.000133562
  7649.7      -0.0144826   0.185517      -0.0144826  -0.0144826  -0.000366772   9.0967e-05
  7662.2      -0.0165387   0.183461      -0.0165387  -0.0165387   0.00364308   2.32797e-05
  7674.73       0.0767182   0.276718       0.0767182   0.0767182   0.000216012  -0.000279851
  7687.33      -0.0111099   0.18889      -0.0111099  -0.0111099  -0.00339013   9.298e-06
  7700.01      -0.00897413   0.191026      -0.00897413  -0.00897413   0.000451037   0.00100838
  7700.39      -0.00522068   0.194779      -0.00522068  -0.00522068   0.00977631   0.00382931
  7700.72      -0.00204273   0.197957      -0.00204273  -0.00204273   0.00316602  -0.0230878
  7701.07      -0.00305829   0.196942      -0.00305829  -0.00305829  -0.00599266  -0.00161111
  7701.43      -0.00632748   0.193673      -0.00632748  -0.00632748   0.00201407   0.016792
  7701.8      -0.00159406   0.198406      -0.00159406  -0.00159406   0.00621515  -0.0085154
  7702.15      -0.00184636   0.198154      -0.00184636  -0.00184636  -0.00412553  -0.0174468
  7702.52      -0.00455206   0.195448      -0.00455206  -0.00455206  -0.00629423   0.0011674
  7702.88      -0.00640338   0.193597      -0.00640338  -0.00640338  -0.00328034   0.00792293
  7703.24      -0.00693687   0.193063      -0.00693687  -0.00693687  -0.00053426   0.00899487
  7703.6      -0.00678858   0.193211      -0.00678858  -0.00678858   0.00320496   0.012497
  7703.96      -0.0046325   0.195367      -0.0046325  -0.0046325   0.00845107   0.00334903
  7704.32      -0.000661553   0.199338      -0.000661553  -0.000661553   0.00563301  -0.0158279
  7704.69      -0.000542932   0.199457      -0.000542932  -0.000542932  -0.00304002  -0.0164402
  7705.02      -0.00277436   0.197226      -0.00277436  -0.00277436  -0.00579292   0.00409473
  7705.38      -0.00456322   0.195437      -0.00456322  -0.00456322  -0.000198274   0.0320917
  7705.75      -0.00291891   0.197081      -0.00291891  -0.00291891   0.017602   0.0347205
  7706.11       0.00830382   0.208304       0.00830382   0.00830382   0.0251824   0.0131707
  7706.47       0.0152628   0.215263       0.0152628   0.0152628   0.0271112   0.00983749
  7706.83       0.0277968   0.227797       0.0277968   0.0277968   0.0322556   0.00159603
  7707.2       0.0386481   0.238648       0.0386481   0.0386481   0.0282683  -0.0195885
  7707.56       0.0483196   0.24832       0.0483196   0.0483196   0.0180343  -0.0327696
  7707.91       0.0516147   0.251615       0.0516147   0.0516147   0.00470697  -0.0210925
  7708.28       0.0517227   0.251723       0.0517227   0.0517227   0.00278442  -0.0081811
  7708.65       0.0536502   0.25365       0.0536502   0.0536502  -0.00127342  -0.0138914
  7708.98       0.0508288   0.250829       0.0508288   0.0508288  -0.00696731   0.007582
  7709.29       0.0491632   0.249163       0.0491632   0.0491632   0.00360939   0.0229976
  7709.6       0.053045   0.253045       0.053045   0.053045   0.0071532  -0.0160295
  7709.9       0.0535481   0.253548       0.0535481   0.0535481  -0.00621671  -0.0343745
  7710.21       0.0492217   0.249222       0.0492217   0.0492217  -0.0139871  -0.00207314
  7710.51       0.045002   0.245002       0.045002   0.045002  -0.0074834   0.0186025
  7710.82       0.0446418   0.244642       0.0446418   0.0446418  -0.00260238   0.0257396
  7711.11       0.0434562   0.243456       0.0434562   0.0434562   0.00780592   0.0134186
  7711.42       0.0492708   0.249271       0.0492708   0.0492708   0.00535485  -0.0197314
  7711.73       0.0467601   0.24676       0.0467601   0.0467601  -0.00436836  -0.0138833
  7712.03       0.0465929   0.246593       0.0465929   0.0465929  -0.00315558  -0.0146434
  7712.33       0.0448415   0.244842       0.0448415   0.0448415  -0.0132715   0.0127009
  7712.64       0.038431   0.238431       0.038431   0.038431   0.0046555   0.0542953
  7712.95       0.0477279   0.247728       0.0477279   0.0477279   0.0203915   0.0348137
  7713.23       0.0504823   0.250482       0.0504823   0.0504823   0.0252304   0.0387112
  7713.54       0.0624877   0.262488       0.0624877   0.0624877   0.0430376   0.0577549
  7713.85       0.0770796   0.27708       0.0770796   0.0770796   0.0609229   0.0510431
  7714.16       0.100443       0.300443       0.100443       0.100443       0.0748374   0.00444062
  7714.47       0.123254       0.323254       0.123254       0.123254       0.0636628  -0.0445942
  7714.78       0.139659       0.339659       0.139659       0.139659       0.0473674  -0.0400661
  7715.08       0.152006       0.352006       0.152006       0.152006       0.0393426  -0.0015798
  7715.39       0.163619       0.363619       0.163619       0.163619       0.0464053   0.0014583
  7715.67       0.179525       0.379525       0.179525       0.179525       0.0402074  -0.0323151
  7715.97       0.18718       0.38718       0.18718       0.18718       0.0274686  -0.0242472
  7716.14       0.192352       0.392352       0.192352       0.192352       0.028884  -0.00996972
  7716.26       0.195354       0.395354       0.195354       0.195354       0.0246472   0.0673592
  7716.37       0.198021       0.398021       0.198021       0.198021       0.0443766   0.183606
  7716.5       0.206182       0.406182       0.206182       0.206182       0.0694471   0.0533538
  7716.62       0.215591       0.415591       0.215591       0.215591       0.0578751  -0.0614462
  7716.73       0.219725       0.419725       0.219725       0.219725       0.0550687   0.0100297
  7716.87       0.229193       0.429193       0.229193       0.229193       0.0603524  -0.0606892
  7716.99       0.235115       0.435115       0.235115       0.235115       0.039593  -0.0989761
  7717.1       0.238458       0.438458       0.238458       0.238458       0.037192   0.0354369
  7717.23       0.244227       0.444227       0.244227       0.244227       0.048275   0.160053
  7717.35       0.250479       0.450479       0.250479       0.250479       0.0770452   0.0726126
  7717.46       0.26187       0.46187       0.26187       0.26187       0.0649033  -0.189391
  7717.59       0.266185       0.466185       0.266185       0.266185       0.0312125   0.101318
  7717.71       0.269611       0.469611       0.269611       0.269611       0.0900301   0.335465
  7717.84       0.288693       0.488693       0.288693       0.288693       0.115079      -0.0790697
  7717.96       0.298381       0.498381       0.298381       0.298381       0.0702627  -0.107896
  7718.07       0.304994       0.504994       0.304994       0.304994       0.0900469   0.163681
  7718.21       0.320532       0.520532       0.320532       0.320532       0.110528      -0.023833
  7718.33       0.333068       0.533068       0.333068       0.333068       0.0839933  -0.230975
  7718.44       0.340271       0.540271       0.340271       0.340271       0.056249  -0.0252056
  7718.57       0.346849       0.546849       0.346849       0.346849       0.0778179   0.210071
  7718.69       0.359881       0.559881       0.359881       0.359881       0.109187       0.170809
  7718.81       0.37218       0.57218       0.37218       0.37218       0.117446       0.0303631
  7718.94       0.38842       0.58842       0.38842       0.38842       0.116565       0.128576
  7719.06       0.401438       0.601438       0.401438       0.401438       0.149718       0.0491682
  7719.17       0.423155       0.623155       0.423155       0.423155       0.127972      -0.1808
  7719.3       0.432535       0.632535       0.432535       0.432535       0.105784       0.19804
  7719.42       0.449812       0.649812       0.449812       0.449812       0.177878       0.183168
  7719.53       0.474514       0.674514       0.474514       0.474514       0.149011      -0.22684
  7719.67       0.486469       0.686469       0.486469       0.486469       0.122075       0.102568
  7719.79       0.505399       0.705399       0.505399       0.505399       0.174961       0.201201
  7719.9       0.527585       0.727585       0.527585       0.527585       0.169358      -0.0144828
  7720.03       0.547061       0.747061       0.547061       0.547061       0.171398       0.212187
  7720.15       0.570949       0.770949       0.570949       0.570949       0.223041       0.139886
  7720.27       0.59903       0.79903       0.59903       0.59903       0.203992      -0.298205
  7720.4       0.620519       0.820519       0.620519       0.620519       0.150577      -0.176374
  7720.52       0.636524       0.836524       0.636524       0.636524       0.160075       0.093618
  7720.65       0.660377       0.860377       0.660377       0.660377       0.173888       0.280298
  7720.77       0.679996       0.879996       0.679996       0.679996       0.230149       0.284046
  7720.88       0.714002       0.914002       0.714002       0.714002       0.24007      -0.159835
  7721.01       0.739293       0.939293       0.739293       0.739293       0.19067      -0.177611
  7721.13       0.762432       0.962432       0.762432       0.762432       0.194957      -0.000886838
  7721.25       0.784718       0.984718       0.784718       0.784718       0.190463       0.0688823
  7721.38       0.809286        1.00929       0.809286       0.809286       0.211902       0.300475
  7721.5       0.838541        1.03854       0.83848       0.83848       0.266784       0.212592
  7721.61       0.871447        2.2662       0.871558        2.06631       0.261436      -0.110352
  7721.74       0.902332        2.24873       0.902646        2.04904       0.239858      -0.0213067
  7721.86       0.931411        2.23324       0.931907        2.03374       0.25611      -0.135512
  7721.97       0.961237        2.21867       0.961905        2.01933       0.20869      -0.376609
  7722.1       0.981914        2.20189       0.982782        2.00276       0.16497      -0.0302944
  7722.23        1.00281        2.18628        1.00387        1.98734       0.201056       0.220288
  7722.36        1.03298        2.16955        1.03424        1.97081       0.220924      -0.0320127
  7722.48        1.0587        2.15435        1.06015        1.9558       0.192957      -0.291304
  7722.59        1.07833        2.14016        1.07995        1.94178       0.152467      -0.330935
  7722.72        1.09606        2.12398        1.09788        1.92581       0.111878      -0.117232
  7722.85        1.10663        2.10906        1.10864        1.91107       0.122807       0.271465
  7722.96        1.12479        2.09548        1.12698        1.89766       0.175401       0.235378
  7723.05        1.14259        2.08428        1.14492        1.88661       0.17106      -0.186537
  7723.21        1.16841        2.06497        1.17099        1.86754       0.127834      -0.141891
  7723.41        1.18797        2.04225        1.19084        1.84513       0.120689       0.00566174
  7723.6        1.21548        2.01941        1.21866        1.82258       0.130042      -0.041663
  7723.8        1.23921        1.99689        1.24269        1.80037       0.104274      -0.159789
  7724        1.25688        1.97438        1.26067        1.77816       0.0666055  -0.204422
  7724.2        1.26572        1.95243        1.26981        1.75652       0.0229137  -0.143509
  7724.4        1.26595        1.9308        1.27035        1.7352       0.00977597  -0.0224649
  7724.59        1.26957        1.90973        1.27427        1.71442       0.0140625  -0.0397239
  7724.79        1.27148        1.88887        1.27648        1.69387      -0.00583553  -0.111671
  7725.01        1.26714        1.86605        1.27248        1.67139      -0.0323926  -0.0390171
  7725.72        1.24123        1.79429        1.24766        1.60073      -0.0422775  -0.00988914
  7726.51        1.20377        1.7203        1.21141        1.52794      -0.0472164   0.00183263
  7727.3        1.16667        1.65013        1.17554        1.459      -0.0393838   0.00543323
  7728.07        1.14237        1.58716        1.15241        1.39721      -0.038746   0.00595891
  7728.83        1.10747        1.52843        1.11869        1.33965      -0.0302786   0.0200408
  7729.59        1.09613        1.47386        1.10853        1.28626      -0.00814379   0.0184604
  7730.35        1.09506        1.42343        1.10863        1.23699      -0.00216339   0.00422689
  7731.15        1.09277        1.37477        1.10756        1.18955      -0.0015752   0.00293406
  7731.91        1.09261        1.33174        1.10857        1.1477       0.00240494  -0.00353709
  7732.68        1.09645        1.29194        1.1136        1.10908      -0.00699403  -0.00737147
  7733.44        1.0819        1.25588        1.10022        1.0742      -0.00888078   0.00307824
  7734.21        1.08282        1.22261        1.10233        1.04211      -0.00226893  -0.00286052
  7734.98        1.07842        1.19292        1.0991        1.0136      -0.0132717  -0.00868436
  7735.77        1.0621        1.16495        1.08401       0.986863      -0.0158252   0.00840066
  7736.54        1.05369        1.1411        1.07677       0.964186      -0.000141443   0.00710921
  7737.31        1.06189        1.11977        1.08616       0.944039      -0.00491968  -0.0137335
  7738.08        1.04611        1.10104        1.07157       0.926492      -0.0212773  -0.00806679
  7738.84        1.02923        1.08479        1.05586       0.911426      -0.0173022   0.00740394
  7739.62        1.0195        1.07071        1.04733       0.898536      -0.00989   0.00220769
  7740.39        1.01396        1.05879        1.04297       0.887804      -0.0138935  -0.00833085
  7741.16       0.998038        1.04888        1.02824       0.879076      -0.0227612  -0.0070213
  7741.95       0.978358        1.04066        1.00978       0.872082      -0.0248748   0.000422499
  7744.45       0.916175        1.02585       0.951441       0.861113      -0.0213707   0.00174711
  7746.97       0.871142        1.02418       0.910281       0.863316      -0.0161096   0.00167375
  7749.45       0.835611        1.03067       0.878574       0.873633      -0.0130003   0.00105592
  7751.94       0.806582        1.04041       0.853365       0.887189      -0.0108659   0.00101459
  7754.45       0.78126        1.0499       0.831922       0.90056      -0.00792533   0.00193423
  7756.95       0.766845        1.05841       0.821345       0.912912      -0.00116761   0.00263856
  7759.43       0.775451        1.06604       0.833771       0.924356       0.00520153   0.00180996
  7761.95       0.792842        1.07294       0.855035       0.93513       0.00787857   0.00120979
  7764.47       0.815144        1.07903       0.881218       0.945105       0.0112964   0.000637296
  7766.97       0.849527        1.08429       0.919444       0.954204       0.0110765   7.16331e-05
  7769.46       0.87046        1.08879       0.94422       0.962551       0.0116542  -3.99758e-05
  7771.99       0.908055        1.09261       0.985702       0.970253       0.0108758  -0.00133116
  7774.49       0.925121        1.09568        1.00662       0.977175       0.00496377  -0.00169142
  7777       0.932923        1.09808        1.01828       0.983438       0.00240173  -0.000623882
  7780.56       0.93971        1.10037        1.03055       0.991213       0.00117431  -0.000897712
  7784.15       0.941322        1.10141        1.03769       0.997773      -0.00401871  -0.00064772
  7787.69       0.911052        1.10126        1.01287        1.00308      -0.00344458   0.000630307
  7791.28       0.916752        1.1        1.0241        1.00734       0.000477268   0.000284687
  7794.86       0.914474        1.0977        1.02733        1.01055      -0.00140366  -0.000484257
  7798.44       0.90671        1.09444        1.02507        1.0128      -0.00298711  -0.000263449
  7802.02       0.893107        1.09028        1.01697        1.01415      -0.00328811  -8.94055e-05
  7805.61       0.883108        1.08528        1.01251        1.01469      -0.00362886   9.55351e-05
  7809.2       0.867019        1.07954        1.00195        1.01447      -0.00260131   0.000514158
  7812.81       0.864391        1.0731        1.00487        1.01358       7.05047e-05  -1.36035e-05
  7816.38       0.867525        1.06613        1.0135        1.01211      -0.00269894  -0.00049684
  7819.99       0.844999        1.05855       0.996538        1.01009      -0.00349929   2.07267e-05
  7823.6       0.842246        1.05052       0.999342        1.00761      -0.00254921  -0.000123915
  7827.22       0.826571        1.0421       0.989236        1.00476      -0.00439507   9.54238e-05
  7830.81       0.810562        1.03344       0.978754        1.00163      -0.0018613   0.000724688
  7834.44       0.813142        1.02448       0.986912       0.99825       0.00083355  -0.000140521
  7838.06       0.816602        1.01538       0.995947       0.994721      -0.00287952  -0.000356625
  7841.69       0.79226        1.00618       0.977192       0.991113      -0.0017527   0.000837465
  7845.32       0.803877       0.996991       0.994397       0.987511       0.00320048   0.00136451