File: Dynamic XAS/Dynamic XAS Energy analyzed data/ESweep_0_5 Hz/Same Eo/Normalized Spectra/Ir0_5Hz_ReaddMean_VPhsCorrect_1_47_mV_.csv.nor
# XDI/1.0 Athena/0.9.26
# Element.edge:                  K
# Element.symbol:                Co
# Column.1:                      energy eV
# Column.2:                      norm
# Column.3:                      nbkg
# Column.4:                      flat
# Column.5:                      fbkg
# Column.6:                      nder
# Column.7:                      nsec
# Athena.e0:                     7721.54
# Athena.eshift:                 0
# Athena.rbkg:                   1.0
# Athena.importance:             1
# Athena.standard:               None
# Athena.bkg_kweight:            3
# Athena.edge_step:              1.19355
# Athena.fixed_step:             no
# Athena.pre_edge_range:         -82.964 -19.904
# Athena.pre_edge_line:          0.085179 + 0.000203587 * E
# Athena.normalization_range:    45 125.256
# Athena.post_edge_polynomial:   15.6202 - 0.00165374 * E + 0 * E^2 + 0 * E^3
# Athena.spline_range_energy:    0.000 125.180
# Athena.clamps:                 0 24
# Athena.spline_range_k:         0.000 5.732
# Athena.kweight:                2
# Athena.window:                 hanning
# Athena.phase_correction:       no
# Athena.k_range:                .4 5.35
# Athena.dk:                     .5
# Athena.r_range:                .4 5.1
# Athena.dr:                     .5
# Athena.window:                 hanning
# Athena.plot_multiplier:        1
# Athena.y_offset:               0.2
# ///
#------------------------
#   e         norm        nbkg        flat        fbkg        nder        nsec
  7600.07      -0.217216      -0.0172157  -0.217216      -0.217216       0.01265  -0.000542184
  7610.64      -0.0834546   0.116545      -0.0834546  -0.0834546   0.00691695  -0.00039973
  7624.56      -0.0478265   0.152174      -0.0478265  -0.0478265   0.00286101  -0.00021174
  7637.2      -0.00746887   0.192531      -0.00746887  -0.00746887   0.00129335  -0.000130028
  7649.7      -0.0153079   0.184692      -0.0153079  -0.0153079  -0.000408271   0.000100792
  7662.2      -0.0176752   0.182325      -0.0176752  -0.0176752   0.00381304   2.7147e-05
  7674.73       0.0801479   0.280148       0.0801479   0.0801479   0.000271326  -0.000291734
  7687.33      -0.0108563   0.189144      -0.0108563  -0.0108563  -0.00351881   2.02305e-06
  7700.01      -0.00879707   0.191203      -0.00879707  -0.00879707   0.000322463   0.000972399
  7700.39      -0.00664586   0.193354      -0.00664586  -0.00664586   0.0091778   0.00623676
  7700.72      -0.00229   0.19771      -0.00229  -0.00229   0.00474433  -0.0209914
  7701.07      -0.00340549   0.196595      -0.00340549  -0.00340549  -0.0051593  -0.00339729
  7701.43      -0.0059789   0.194021      -0.0059789  -0.0059789   0.00231527   0.0150063
  7701.8      -0.00172229   0.198278      -0.00172229  -0.00172229   0.00575027  -0.00892228
  7702.15      -0.00183296   0.198167      -0.00183296  -0.00183296  -0.00411769  -0.0171716
  7702.52      -0.00467467   0.195325      -0.00467467  -0.00467467  -0.00656176   0.00160637
  7702.88      -0.00658367   0.193416      -0.00658367  -0.00658367  -0.00295468   0.00823439
  7703.24      -0.00682273   0.193177      -0.00682273  -0.00682273  -0.000575361   0.00709733
  7703.6      -0.00699851   0.193001      -0.00699851  -0.00699851   0.00216249   0.0141168
  7703.96      -0.00526789   0.194732      -0.00526789  -0.00526789   0.00957465   0.00326475
  7704.32      -5.6889e-05   0.199943      -5.6889e-05  -5.6889e-05   0.00452944  -0.0179739
  7704.69      -0.00197952   0.19802      -0.00197952  -0.00197952  -0.0034744  -0.0112961
  7705.02      -0.0024716   0.197528      -0.0024716  -0.0024716  -0.00332132   0.00491193
  7705.38      -0.00428452   0.195715      -0.00428452  -0.00428452  -6.55156e-05   0.0283645
  7705.75      -0.00251936   0.197481      -0.00251936  -0.00251936   0.0173564   0.0349794
  7706.11       0.008403   0.208403       0.008403   0.008403   0.0255044   0.0160833
  7706.47       0.0158948   0.215895       0.0158948   0.0158948   0.0289685   0.0109171
  7706.83       0.0292314   0.229231       0.0292314   0.0292314   0.0333538  -0.00169096
  7707.2       0.0400764   0.240076       0.0400764   0.0400764   0.0277426  -0.0239699
  7707.56       0.0493725   0.249372       0.0493725   0.0493725   0.0159517  -0.0357339
  7707.91       0.0515456   0.251546       0.0515456   0.0515456   0.00204991  -0.0193265
  7708.28       0.0508545   0.250855       0.0508545   0.0508545   0.00197864  -0.0050452
  7708.65       0.052992   0.252992       0.052992   0.052992  -0.00163812  -0.0127305
  7708.98       0.0497046   0.249705       0.0497046   0.0497046  -0.00695817   0.00935377
  7709.29       0.048511   0.248511       0.048511   0.048511   0.0043857   0.0197253
  7709.6       0.0523974   0.252397       0.0523974   0.0523974   0.00515317  -0.016605
  7709.9       0.0516699   0.25167       0.0516699   0.0516699  -0.00579314  -0.0299198
  7710.21       0.0488346   0.248835       0.0488346   0.0488346  -0.0132475  -0.00108345
  7710.51       0.0435757   0.243576       0.0435757   0.0435757  -0.00645513   0.022342
  7710.82       0.0448841   0.244884       0.0448841   0.0448841   0.000425843   0.0252547
  7711.11       0.0438286   0.243829       0.0438286   0.0438286   0.00854616   0.0146207
  7711.42       0.049952   0.249952       0.049952   0.049952   0.00909594  -0.0216309
  7711.73       0.0494408   0.249441       0.0494408   0.0494408  -0.00480012  -0.0174956
  7712.03       0.0470095   0.247009       0.0470095   0.0470095  -0.00162889   0.00086764
  7712.33       0.0484504   0.24845       0.0484504   0.0484504  -0.00427259   0.00973048
  7712.64       0.0443818   0.244382       0.0443818   0.0443818   0.00435535   0.0382729
  7712.95       0.0511508   0.251151       0.0511508   0.0511508   0.0194566   0.0377038
  7713.23       0.0558807   0.255881       0.0558807   0.0558807   0.0266383   0.047114
  7713.54       0.0667342   0.266734       0.0667342   0.0667342   0.0470183   0.0570306
  7713.85       0.084938   0.284938       0.084938   0.084938   0.0618832   0.0449019
  7714.16       0.105287       0.305287       0.105287       0.105287       0.0749922   0.0134825
  7714.47       0.131208       0.331208       0.131208       0.131208       0.0702019  -0.045024
  7714.78       0.148532       0.348532       0.148532       0.148532       0.0472574  -0.0490746
  7715.08       0.159893       0.359893       0.159893       0.159893       0.0404137   0.00743233
  7715.39       0.173144       0.373144       0.173144       0.173144       0.0517837   0.0103308
  7715.67       0.190601       0.390601       0.190601       0.190601       0.0465398  -0.0553572
  7715.97       0.200416       0.400416       0.200416       0.200416       0.0193443  -0.0556081
  7716.14       0.199635       0.399635       0.199635       0.199635       0.0205708   0.0790958
  7716.26       0.206238       0.406238       0.206238       0.206238       0.0417284   0.0916492
  7716.37       0.209232       0.409232       0.209232       0.209232       0.0416501   0.141243
  7716.5       0.2164       0.4164       0.2164       0.2164       0.0761918   0.133331
  7716.62       0.228509       0.428509       0.228509       0.228509       0.0753828  -0.0709503
  7716.73       0.23404       0.43404       0.23404       0.23404       0.0595894  -0.153628
  7716.87       0.243228       0.443228       0.243228       0.243228       0.0374367  -0.0758721
  7716.99       0.243586       0.443586       0.243586       0.243586       0.040242   0.0776145
  7717.1       0.252644       0.452644       0.252644       0.252644       0.0555985  -0.0266907
  7717.23       0.257208       0.457208       0.257208       0.257208       0.0337028   0.0729081
  7717.35       0.261036       0.461036       0.261036       0.261036       0.0737526   0.204449
  7717.46       0.274097       0.474097       0.274097       0.274097       0.0805215  -0.0803677
  7717.59       0.280522       0.480522       0.280522       0.280522       0.0543036   0.00428242
  7717.71       0.287564       0.487564       0.287564       0.287564       0.0815836   0.207915
  7717.84       0.300918       0.500918       0.300918       0.300918       0.106282       0.0608587
  7717.96       0.314135       0.514135       0.314135       0.314135       0.0967982  -0.115599
  7718.07       0.323375       0.523375       0.323375       0.323375       0.0794635   0.00336471
  7718.21       0.333683       0.533683       0.333683       0.333683       0.097626   0.068519
  7718.33       0.348172       0.548172       0.348172       0.348172       0.0968674  -0.043646
  7718.44       0.356447       0.556447       0.356447       0.356447       0.0873692  -0.0744267
  7718.57       0.369578       0.569578       0.369578       0.369578       0.0786328   0.0769185
  7718.69       0.376262       0.576262       0.376262       0.376262       0.106753       0.233828
  7718.81       0.394345       0.594345       0.394345       0.394345       0.132881       0.0147355
  7718.94       0.408552       0.608552       0.408552       0.408552       0.110333      -0.0203115
  7719.06       0.422038       0.622038       0.422038       0.422038       0.127783       0.0498463
  7719.17       0.438198       0.638198       0.438198       0.438198       0.121898       0.0359199
  7719.3       0.451659       0.651659       0.451659       0.451659       0.136511       0.261089
  7719.42       0.472599       0.672599       0.472599       0.472599       0.187692       0.083677
  7719.53       0.495955       0.695955       0.495955       0.495955       0.156259      -0.236769
  7719.67       0.511039       0.711039       0.511039       0.511039       0.129447      -0.0360462
  7719.79       0.528705       0.728705       0.528705       0.528705       0.147139       0.16427
  7719.9       0.545616       0.745616       0.545616       0.545616       0.16805       0.218994
  7720.03       0.570045       0.770045       0.570045       0.570045       0.201012       0.127175
  7720.15       0.596472       0.796472       0.596472       0.596472       0.200226      -0.051739
  7720.27       0.616698       0.816698       0.616698       0.616698       0.188957      -0.0594694
  7720.4       0.642389       0.842389       0.642389       0.642389       0.185775      -0.0942698
  7720.52       0.662956       0.862955       0.662956       0.662956       0.165484      -0.0545422
  7720.65       0.683594       0.883594       0.683594       0.683594       0.172194       0.161394
  7720.77       0.706004       0.906004       0.706004       0.706004       0.205832       0.21719
  7720.88       0.731553       0.931553       0.731553       0.731553       0.222799       0.0290757
  7721.01       0.761035       0.961035       0.761035       0.761035       0.213014      -0.188746
  7721.13       0.785659       0.985659       0.785659       0.785659       0.174857      -0.088193
  7721.25       0.801777        1.00178       0.801777       0.801777       0.192465       0.249251
  7721.38       0.833005        1.03301       0.833005       0.833005       0.236173       0.234744
  7721.5       0.861765        1.06176       0.861703       0.861703       0.25209       0.00158559
  7721.61       0.891742        2.23554       0.891854        2.03565       0.236543      -0.180413
  7721.74       0.919481        2.21853       0.919799        2.01885       0.208069       0.0706147
  7721.86       0.943759        2.20346       0.94426        2.00396       0.254196      -0.041693
  7721.97       0.977946        2.18927       0.978622        1.98995       0.19848      -0.442818
  7722.1       0.991791        2.17295       0.992669        1.97383       0.147034       0.0528481
  7722.23        1.015        2.15776        1.01607        1.95883       0.211797       0.261626
  7722.36        1.04559        2.14148        1.04686        1.94275       0.213487      -0.130589
  7722.48        1.06901        2.12669        1.07047        1.92815       0.178758      -0.302236
  7722.59        1.0876        2.11287        1.08923        1.91451       0.142462      -0.352244
  7722.72        1.10391        2.09713        1.10576        1.89898       0.0924585  -0.17643
  7722.85        1.11099        2.08261        1.11302        1.88464       0.0978252   0.300953
  7722.96        1.12681        2.06939        1.12901        1.8716       0.162882       0.320313
  7723.05        1.14438        2.0585        1.14673        1.86085       0.163489      -0.17921
  7723.21        1.1685        2.0397        1.1711        1.8423       0.117183      -0.164252
  7723.41        1.18598        2.0176        1.18888        1.8205       0.10518       0.016479
  7723.6        1.20952        1.99536        1.21273        1.79857       0.12361      -0.0180177
  7723.8        1.23468        1.97345        1.2382        1.77697       0.098081  -0.168932
  7724        1.24845        1.95154        1.25228        1.75537       0.056544  -0.204783
  7724.2        1.25719        1.93018        1.26132        1.73431       0.0165773  -0.135683
  7724.4        1.25502        1.90913        1.25946        1.71358       0.00281334  -0.0125413
  7724.59        1.25829        1.88862        1.26304        1.69337       0.011636  -0.0423961
  7724.79        1.25959        1.86832        1.26465        1.67337      -0.0138483  -0.104451
  7725.01        1.25253        1.84611        1.25793        1.65151      -0.0318155  -0.026883
  7725.72        1.22988        1.77627        1.23639        1.58278      -0.038957  -0.00737689
  7726.51        1.19414        1.70426        1.20187        1.51199      -0.0428735   0.00298569
  7727.3        1.16218        1.63596        1.17114        1.44493      -0.0342426   0.00489382
  7728.07        1.14075        1.57467        1.15091        1.38482      -0.035244   0.00364563
  7728.83        1.10833        1.5175        1.11967        1.32884      -0.0286721   0.0159958
  7729.59        1.09697        1.46438        1.1095        1.27691      -0.0108184   0.0162997
  7730.35        1.09185        1.41528        1.10556        1.22899      -0.0038476   0.0056286
  7731.15        1.09099        1.36791        1.10594        1.18286      -0.00207155   0.00188867
  7731.91        1.08862        1.32602        1.10476        1.14215      -0.000906945  -0.00415082
  7732.68        1.0896        1.28726        1.10694        1.10459      -0.0084306  -0.00465164
  7733.44        1.07572        1.25215        1.09424        1.07067      -0.00802861   0.0056082
  7734.21        1.07728        1.21974        1.097        1.03947       0.000177995  -0.00110032
  7734.98        1.07599        1.19083        1.0969        1.01174      -0.00971761  -0.00988193
  7735.77        1.06211        1.16359        1.08426       0.985739      -0.0152477   0.00433836
  7736.54        1.05216        1.14035        1.0755       0.963688      -0.00293676   0.00628956
  7737.31        1.0576        1.11956        1.08214       0.944101      -0.00559951  -0.0105216
  7738.08        1.04354        1.10131        1.06928       0.927041      -0.0191295  -0.00811649
  7738.84        1.02824        1.08547        1.05517       0.912396      -0.0180583   0.00479402
  7739.62        1.01577        1.07174        1.0439       0.899868      -0.0117562   0.00279733
  7740.39        1.01009        1.06011        1.03942       0.889439      -0.0137393  -0.00628168
  7741.16       0.994539        1.05043        1.02507       0.88096      -0.0214614  -0.00686388
  7741.95       0.976522        1.0424        1.00829       0.874169      -0.0244744   2.86026e-05
  7744.45       0.913994        1.02789       0.949648       0.86354      -0.0213673   0.00173879
  7746.97       0.869323        1.02616       0.908894       0.865728      -0.0157508   0.00180393
  7749.45       0.835224        1.03238       0.878661       0.875815      -0.0123459   0.00102675
  7751.94       0.808013        1.04176       0.855312       0.889058      -0.010652   0.000965829
  7754.45       0.781943        1.05091       0.833163       0.902128      -0.00751478   0.00202788
  7756.95       0.770334        1.05911       0.825435       0.914212      -0.000484213   0.00257497
  7759.43       0.779534        1.06645       0.838496       0.925416       0.00529571   0.00161098
  7761.95       0.796802        1.0731       0.859681       0.935974       0.00756747   0.00114895
  7764.47       0.817659        1.07896       0.884461       0.945758       0.0110841   0.000604032
  7766.97       0.852422        1.084       0.92311       0.95469       0.0105985  -6.6597e-06
  7769.46       0.870588        1.08832       0.945161       0.962894       0.0110509   3.42031e-05
  7771.99       0.907919        1.09197       0.986422       0.970471       0.0107703  -0.00125378
  7774.49       0.924719        1.09489        1.00711       0.977289       0.00474935  -0.00170328
  7777       0.931714        1.09717        1.01801       0.983466       0.00223686  -0.000688795
  7780.56       0.938306        1.0993        1.03015       0.991147       0.000565612  -0.000871135
  7784.15       0.935759        1.10021        1.03319       0.99764      -0.0039935  -0.000486414
  7787.69       0.909828        1.09997        1.01277        1.00291      -0.00290301   0.000632976
  7791.28       0.915052        1.09862        1.02358        1.00715       0.000521518   0.000211083
  7794.86       0.913567        1.09626        1.02767        1.01036      -0.00138975  -0.000556042
  7798.44       0.905109        1.09295        1.02477        1.01261      -0.00345641  -0.000273485
  7802.02       0.888843        1.08875        1.01407        1.01398      -0.00334599   3.28193e-06
  7805.61       0.881092        1.08371        1.01192        1.01454      -0.00343285   0.00012979
  7809.2       0.864164        1.07793        1.00058        1.01434      -0.00241292   0.000544626
  7812.81       0.863731        1.07144        1.00576        1.01347       0.000485733  -4.76979e-05
  7816.38       0.867651        1.06442        1.01524        1.012      -0.00275525  -0.000592853
  7819.99       0.843934        1.05677       0.997142        1.00998      -0.00377391   1.78408e-05
  7823.6       0.840388        1.04866       0.999215        1.00748      -0.00262637  -6.17585e-05
  7827.22       0.824948        1.04013       0.989406        1.00459      -0.00422037   6.23588e-05
  7830.81       0.809963        1.03134       0.980009        1.00139      -0.00217683   0.000685702
  7834.44       0.809243        1.02222       0.984927       0.997903       0.000726974  -2.608e-05
  7838.06       0.815231        1.01292       0.996552       0.994237      -0.0023658  -0.000359959
  7841.69       0.792086        1.00348       0.979056       0.990453      -0.00188345   0.000685255
  7845.32       0.801557       0.994011       0.994176       0.98663       0.00260915   0.00123763