File: Dynamic XAS/Dynamic XAS Energy analyzed data/ESweep_0_5 Hz/Same Eo/Normalized Spectra/Ir0_5Hz_ReaddMean_VPhsCorrect_48_-47_mV_.csv.nor
# XDI/1.0 Athena/0.9.26
# Element.edge:                  K
# Element.symbol:                Co
# Column.1:                      energy eV
# Column.2:                      norm
# Column.3:                      nbkg
# Column.4:                      flat
# Column.5:                      fbkg
# Column.6:                      nder
# Column.7:                      nsec
# Athena.e0:                     7721.54
# Athena.eshift:                 0
# Athena.rbkg:                   1.0
# Athena.importance:             1
# Athena.standard:               None
# Athena.bkg_kweight:            3
# Athena.edge_step:              1.19264
# Athena.fixed_step:             no
# Athena.pre_edge_range:         -82.964 -19.904
# Athena.pre_edge_line:          -0.046223 + 0.000220658 * E
# Athena.normalization_range:    45 125.256
# Athena.post_edge_polynomial:   15.586 - 0.00164938 * E + 0 * E^2 + 0 * E^3
# Athena.spline_range_energy:    0.000 125.180
# Athena.clamps:                 0 24
# Athena.spline_range_k:         0.000 5.732
# Athena.kweight:                2
# Athena.window:                 hanning
# Athena.phase_correction:       no
# Athena.k_range:                .4 5.35
# Athena.dk:                     .5
# Athena.r_range:                .4 5.1
# Athena.dr:                     .5
# Athena.window:                 hanning
# Athena.plot_multiplier:        1
# Athena.y_offset:               0.2
# ///
#------------------------
#   e         norm        nbkg        flat        fbkg        nder        nsec
  7600.07      -0.216972      -0.0169723  -0.216972      -0.216972       0.0128702  -0.000556389
  7610.64      -0.0808825   0.119117      -0.0808825  -0.0808825   0.00698696  -0.00041409
  7624.56      -0.0458686   0.154131      -0.0458686  -0.0458686   0.00272958  -0.000216967
  7637.2      -0.00838774   0.191612      -0.00838774  -0.00838774   0.00122453  -0.000121941
  7649.7      -0.0150801   0.18492      -0.0150801  -0.0150801  -0.000336393   0.000104405
  7662.2      -0.0167972   0.183203      -0.0167972  -0.0167972   0.00383455   2.19857e-05
  7674.73       0.0809141   0.280914       0.0809141   0.0809141   0.000213997  -0.000294706
  7687.33      -0.0114191   0.188581      -0.0114191  -0.0114191  -0.00357201   7.26029e-06
  7700.01      -0.00937557   0.190624      -0.00937557  -0.00937557   0.000397515   0.00106517
  7700.39      -0.0062287   0.193771      -0.0062287  -0.0062287   0.0103359   0.00651186
  7700.72      -0.00204743   0.197953      -0.00204743  -0.00204743   0.00501443  -0.0238916
  7701.07      -0.00280385   0.197196      -0.00280385  -0.00280385  -0.00598206  -0.006332
  7701.43      -0.0063246   0.193675      -0.0063246  -0.0063246   0.000487043   0.0152425
  7701.8      -0.00244977   0.19755      -0.00244977  -0.00244977   0.00509926  -0.00550356
  7702.15      -0.00264803   0.197352      -0.00264803  -0.00264803  -0.00348102  -0.0135316
  7702.52      -0.00494566   0.195054      -0.00494566  -0.00494566  -0.00460291   0.00370381
  7702.88      -0.00598054   0.194019      -0.00598054  -0.00598054  -0.000799466   0.00348819
  7703.24      -0.00552687   0.194473      -0.00552687  -0.00552687  -0.002067   0.00366735
  7703.6      -0.00747085   0.192529      -0.00747085  -0.00747085   0.0018447   0.0138757
  7703.96      -0.00420054   0.195799      -0.00420054  -0.00420054   0.00790963   0.0024115
  7704.32      -0.00173637   0.198264      -0.00173637  -0.00173637   0.00359303  -0.0129441
  7704.69      -0.001592   0.198408      -0.001592  -0.001592  -0.00148779  -0.0104831
  7705.02      -0.00277038   0.19723      -0.00277038  -0.00277038  -0.00369272   0.00440199
  7705.38      -0.00415474   0.195845      -0.00415474  -0.00415474   0.0015672   0.0284901
  7705.75      -0.00162789   0.198372      -0.00162789  -0.00162789   0.0170766   0.0323407
  7706.11       0.00832822   0.208328       0.00832822   0.00832822   0.0252083   0.0167236
  7706.47       0.0165725   0.216572       0.0165725   0.0165725   0.029151   0.00938957
  7706.83       0.0292878   0.229288       0.0292878   0.0292878   0.0319594  -0.00308309
  7707.2       0.039743   0.239743       0.039743   0.039743   0.0269158  -0.0204201
  7707.56       0.0488286   0.248829       0.0488286   0.0488286   0.0171344  -0.0321956
  7707.91       0.0520626   0.252063       0.0520626   0.0520626   0.00376709  -0.021156
  7708.28       0.0515522   0.251552       0.0515522   0.0515522   0.00183857  -0.00815746
  7708.65       0.0534066   0.253407       0.0534066   0.0534066  -0.00219601  -0.0132355
  7708.98       0.0500106   0.250011       0.0500106   0.0500106  -0.00745277   0.0085334
  7709.29       0.048607   0.248607       0.048607   0.048607   0.0032995   0.0226437
  7709.6       0.0520365   0.252037       0.0520365   0.0520365   0.00645048  -0.0144214
  7709.9       0.0525612   0.252561       0.0525612   0.0525612  -0.0055408  -0.0312327
  7710.21       0.0486289   0.248629       0.0486289   0.0486289  -0.0127577  -0.00262208
  7710.51       0.0447663   0.244766       0.0447663   0.0447663  -0.00714289   0.020177
  7710.82       0.0442575   0.244257       0.0442575   0.0442575  -0.000409314   0.0298939
  7711.11       0.0445231   0.244523       0.0445231   0.0445231   0.0106141   0.0100155
  7711.42       0.0505516   0.250552       0.0505516   0.0505516   0.00552989  -0.0230903
  7711.73       0.0479351   0.247935       0.0479351   0.0479351  -0.00363263  -0.00596006
  7712.03       0.0483248   0.248325       0.0483248   0.0483248   0.00187637   0.000589644
  7712.33       0.0490759   0.249076       0.0490759   0.0490759  -0.00327413   0.00865382
  7712.64       0.0463112   0.246311       0.0463112   0.0463112   0.00719847   0.0313489
  7712.95       0.053539   0.253539       0.053539   0.053539   0.0161622   0.0273233
  7713.23       0.0558631   0.255863       0.0558631   0.0558631   0.0233465   0.0548923
  7713.54       0.0671967   0.267197       0.0671967   0.0671967   0.0482742   0.0645016
  7713.85       0.0856966   0.285697       0.0856965   0.0856965   0.0632086   0.0479997
  7714.16       0.106576       0.306576       0.106576       0.106576       0.078178   0.0204802
  7714.47       0.133932       0.333932       0.133932       0.133932       0.0758448  -0.0422494
  7714.78       0.153296       0.353296       0.153296       0.153296       0.0521524  -0.0626832
  7715.08       0.165589       0.365589       0.165589       0.165589       0.0377961  -0.00710721
  7715.39       0.176314       0.376314       0.176314       0.176314       0.0478241   0.0189548
  7715.67       0.193949       0.393949       0.193949       0.193949       0.0490363  -0.0455707
  7715.97       0.205049       0.405049       0.205049       0.205049       0.0211197  -0.0701191
  7716.14       0.203811       0.403811       0.203811       0.203811       0.0162907   0.0838574
  7716.26       0.209659       0.409659       0.209659       0.209659       0.0448513   0.158728
  7716.37       0.214127       0.414127       0.214127       0.214127       0.052798   0.126773
  7716.5       0.222542       0.422542       0.222542       0.222542       0.075784   0.0771767
  7716.62       0.233301       0.433301       0.233301       0.233301       0.0723237  -0.105334
  7716.73       0.239466       0.439466       0.239466       0.239466       0.0511359  -0.191785
  7716.87       0.245931       0.445931       0.245931       0.245931       0.0249527  -0.0594453
  7716.99       0.245829       0.445829       0.245829       0.245829       0.0359773   0.137408
  7717.1       0.25435       0.45435       0.25435       0.25435       0.0571061   0.0416463
  7717.23       0.25982       0.45982       0.25982       0.25982       0.0461807   0.130775
  7717.35       0.265849       0.465849       0.265849       0.265849       0.089669   0.0693653
  7717.46       0.280354       0.480354       0.280354       0.280354       0.0620653  -0.152122
  7717.59       0.280869       0.480869       0.280869       0.280869       0.0528554   0.106678
  7717.71       0.293462       0.493462       0.293462       0.293462       0.0885215   0.163202
  7717.84       0.302999       0.502999       0.302999       0.302999       0.093656   0.0701654
  7717.96       0.316876       0.516876       0.316876       0.316876       0.106063       0.0557101
  7718.07       0.327606       0.527606       0.327606       0.327606       0.106581      -0.0612627
  7718.21       0.343095       0.543095       0.343095       0.343095       0.0909922  -0.141235
  7718.33       0.350718       0.550718       0.350718       0.350718       0.0707071   0.0630984
  7718.44       0.359711       0.559711       0.359711       0.359711       0.10582       0.140971
  7718.57       0.376644       0.576644       0.376644       0.376644       0.105245      -0.0344475
  7718.69       0.386233       0.586233       0.386233       0.386233       0.0971396  -0.00343098
  7718.81       0.39918       0.59918       0.39918       0.39918       0.104449       0.12545
  7718.94       0.411614       0.611614       0.411614       0.411614       0.127624       0.184517
  7719.06       0.431214       0.631214       0.431214       0.431214       0.150763      -0.0195111
  7719.17       0.446591       0.646591       0.446591       0.446591       0.123097      -0.0794968
  7719.3       0.461126       0.661126       0.461126       0.461126       0.131445       0.147329
  7719.42       0.479715       0.679715       0.479715       0.479715       0.160224       0.0825447
  7719.53       0.498939       0.698939       0.498939       0.498939       0.150926      -0.0565222
  7719.67       0.516843       0.716843       0.516843       0.516843       0.14632      -0.0600663
  7719.79       0.535958       0.735958       0.535958       0.535958       0.135729       0.11423
  7719.9       0.548739       0.748739       0.548739       0.548739       0.173164       0.32701
  7720.03       0.578556       0.778556       0.578556       0.578556       0.216173       0.141899
  7720.15       0.603431       0.803431       0.603431       0.603431       0.209064      -0.136186
  7720.27       0.627268       0.827268       0.627268       0.627268       0.184442      -0.138787
  7720.4       0.64825       0.84825       0.64825       0.64825       0.175339      -0.0948899
  7720.52       0.670928       0.870928       0.670928       0.670928       0.160814      -0.00414317
  7720.65       0.688293       0.888293       0.688293       0.688293       0.174307       0.172536
  7720.77       0.714505       0.914505       0.714505       0.714505       0.203948       0.175492
  7720.88       0.735813       0.935813       0.735813       0.735813       0.215197       0.0841041
  7721.01       0.767658       0.967658       0.767658       0.767658       0.224722      -0.184677
  7721.13       0.792892       0.992892       0.792892       0.792892       0.168289      -0.11045
  7721.25       0.80687        1.00687       0.80687       0.80687       0.198987       0.333919
  7721.38       0.841843        1.04184       0.841843       0.841843       0.250433       0.211911
  7721.5       0.87048        1.07048       0.870417       0.870417       0.252813      -0.149634
  7721.61       0.900749        2.23694       0.900862        2.03705       0.215568      -0.229289
  7721.74       0.923078        2.21989       0.923398        2.02021       0.196866       0.204666
  7721.86       0.949965        2.20479       0.95047        2.0053       0.266735       0.0121783
  7721.97       0.984427        2.19057       0.985108        1.99125       0.199667      -0.556897
  7722.1       0.998285        2.17421       0.999169        1.97509       0.131966       0.0220043
  7722.23        1.01768        2.15899        1.01876        1.96006       0.205212       0.290141
  7722.36        1.05041        2.14267        1.05169        1.94395       0.205662      -0.191474
  7722.48        1.06972        2.12784        1.07119        1.92932       0.15677      -0.258905
  7722.59        1.08725        2.114        1.0889        1.91565       0.144819      -0.201022
  7722.72        1.1052        2.09822        1.10705        1.90008       0.107519      -0.132083
  7722.85        1.11445        2.08367        1.1165        1.88572       0.111402       0.152887
  7722.96        1.13126        2.07042        1.13349        1.87264       0.143295       0.177183
  7723.05        1.14383        2.0595        1.1462        1.86187       0.147724      -0.0877067
  7723.21        1.16893        2.04066        1.17156        1.84328       0.12093      -0.114526
  7723.41        1.18676        2.01851        1.18968        1.82143       0.107068      -0.00581942
  7723.6        1.21069        1.99622        1.21392        1.79946       0.11866      -0.0543559
  7723.8        1.23351        1.97426        1.23705        1.77781       0.0856515  -0.172454
  7724        1.24469        1.9523        1.24855        1.75616       0.0501956  -0.174564
  7724.2        1.25349        1.93089        1.25765        1.73506       0.0161749  -0.116675
  7724.4        1.2511        1.90981        1.25558        1.71428       0.00399222  -0.0035101
  7724.59        1.25506        1.88925        1.25985        1.69403       0.0147919  -0.0429473
  7724.79        1.25691        1.8689        1.26201        1.674      -0.0128861  -0.113174
  7725.01        1.2497        1.84665        1.25514        1.65209      -0.0322886  -0.0258591
  7725.72        1.22675        1.77666        1.23331        1.58322      -0.0370385  -0.00666548
  7726.51        1.19418        1.7045        1.20197        1.51229      -0.0422801   0.00174943
  7727.3        1.15999        1.63607        1.16903        1.4451      -0.0342761   0.0057685
  7728.07        1.14074        1.57466        1.15098        1.38489      -0.033287   0.0038584
  7728.83        1.10913        1.51738        1.12056        1.32881      -0.0283805   0.0142669
  7729.59        1.09741        1.46417        1.11003        1.27679      -0.0115015   0.0157284
  7730.35        1.09161        1.41499        1.10543        1.2288      -0.00442619   0.0055029
  7731.15        1.09053        1.36753        1.10559        1.1826      -0.00294995   0.00228721
  7731.91        1.08702        1.32558        1.10328        1.14184      -0.000865011  -0.0031627
  7732.68        1.0892        1.28677        1.10667        1.10424      -0.00779521  -0.00493609
  7733.44        1.07509        1.25162        1.09375        1.07028      -0.00842216   0.00554616
  7734.21        1.07627        1.21917        1.09615        1.03905       0.000718154  -0.00101739
  7734.98        1.07619        1.19023        1.09726        1.0113      -0.00998386  -0.0103142
  7735.77        1.06069        1.16297        1.08301       0.985287      -0.0153823   0.00560298
  7736.54        1.05215        1.13971        1.07567       0.963232      -0.0012264   0.0061453
  7737.31        1.05881        1.11892        1.08353       0.943646      -0.00595537  -0.0122265
  7738.08        1.04298        1.10066        1.06891       0.926595      -0.020043  -0.00733387
  7738.84        1.02804        1.08483        1.05517       0.911964      -0.0172129   0.00484807
  7739.62        1.01651        1.07111        1.04485       0.899455      -0.0125867   0.00146685
  7740.39        1.00861        1.0595        1.03816       0.88905      -0.014948  -0.00494334
  7741.16       0.993414        1.04983        1.02418       0.880599      -0.0202242  -0.00596255
  7741.95       0.976977        1.04184        1.00898       0.873841      -0.0242735  -0.000356367
  7744.45       0.91353        1.02741       0.949455       0.863337      -0.021397   0.00166003
  7746.97       0.869629        1.0258       0.909501       0.865669      -0.0159451   0.00177441
  7749.45       0.833788        1.03213       0.877555       0.8759      -0.0125232   0.00109534
  7751.94       0.807439        1.04161       0.855097       0.889273      -0.0105056   0.00103901
  7754.45       0.781239        1.05084       0.832849       0.902447      -0.00732606   0.00203901
  7756.95       0.770706        1.05909       0.826226       0.914608      -0.000282056   0.00254013
  7759.43       0.779836        1.06645       0.839246       0.925865       0.00531108   0.00155655
  7761.95       0.797251        1.0731       0.860608       0.936454       0.00749756   0.0011557
  7764.47       0.817609        1.07894       0.884919       0.946247       0.0111335   0.000621592
  7766.97       0.853118        1.08395       0.924344       0.955171       0.0106167  -5.48091e-05
  7769.46       0.870628        1.08821       0.945769       0.963349       0.0108598  -1.91414e-05
  7771.99       0.907656        1.09179       0.986756       0.970886       0.0105206  -0.00123158
  7774.49       0.923505        1.09463        1.00653       0.977651       0.00466986  -0.00169543
  7777       0.931052        1.09681        1.01801       0.983764       0.00202647  -0.000614348
  7780.56       0.935814        1.0988        1.02836       0.991341       0.000938313  -0.000860765
  7784.15       0.937763        1.09955        1.03593       0.997717      -0.00412973  -0.000561844
  7787.69       0.906365        1.09914        1.01009        1.00286      -0.0030682   0.000702168
  7791.28       0.915878        1.09763        1.02523        1.00698       0.000878834   0.000191371
  7794.86       0.912665        1.0951        1.02763        1.01007      -0.00169626  -0.000615893
  7798.44       0.903743        1.09164        1.02431        1.01222      -0.00352726  -0.000234674
  7802.02       0.887434        1.08731        1.01362        1.0135      -0.00337488   6.11152e-05
  7805.61       0.879518        1.08216        1.01134        1.01399      -0.00308858   9.92735e-05
  7809.2       0.865231        1.0763        1.00269        1.01376      -0.0026612   0.000420318
  7812.81       0.86037        1.06977        1.00348        1.01288      -6.43922e-05  -1.36295e-05
  7816.38       0.864768        1.06274        1.01348        1.01145      -0.00275902  -0.000474906
  7819.99       0.840547        1.05514       0.99492        1.00951      -0.00347659   9.08015e-05
  7823.6       0.839654        1.04712       0.999689        1.00715      -0.00210307  -0.000136591
  7827.22       0.825344        1.03875       0.991052        1.00445      -0.004464   1.50669e-05
  7830.81       0.807473        1.03017       0.978811        1.00151      -0.00199445   0.000763416
  7834.44       0.810954        1.02134       0.987975       0.998363       0.00104404  -0.000137258
  7838.06       0.815038        1.01241       0.997738       0.995107      -0.00298903  -0.000420015
  7841.69       0.789277        1.00343       0.977669       0.991817      -0.00200191   0.000837708
  7845.32       0.800504       0.994495       0.994588       0.988579       0.00309274   0.00140348