File: Dynamic XAS/Dynamic XAS Energy analyzed data/ESweep_0_5 Hz/Same Eo/Normalized Spectra/Ir0_5Hz_ReaddMean_VPhsCorrect_30_-159_mV_.csv.nor
# XDI/1.0 Athena/0.9.26
# Element.edge:                  K
# Element.symbol:                Co
# Column.1:                      energy eV
# Column.2:                      norm
# Column.3:                      nbkg
# Column.4:                      flat
# Column.5:                      fbkg
# Column.6:                      nder
# Column.7:                      nsec
# Athena.e0:                     7721.54
# Athena.eshift:                 0
# Athena.rbkg:                   1.0
# Athena.importance:             1
# Athena.standard:               None
# Athena.bkg_kweight:            3
# Athena.edge_step:              1.19315
# Athena.fixed_step:             no
# Athena.pre_edge_range:         -82.964 -19.904
# Athena.pre_edge_line:          0.117912 + 0.000199265 * E
# Athena.normalization_range:    45 125.256
# Athena.post_edge_polynomial:   15.5628 - 0.00164644 * E + 0 * E^2 + 0 * E^3
# Athena.spline_range_energy:    0.000 125.180
# Athena.clamps:                 0 24
# Athena.spline_range_k:         0.000 5.732
# Athena.kweight:                2
# Athena.window:                 hanning
# Athena.phase_correction:       no
# Athena.k_range:                .4 5.35
# Athena.dk:                     .5
# Athena.r_range:                .4 5.1
# Athena.dr:                     .5
# Athena.window:                 hanning
# Athena.plot_multiplier:        1
# Athena.y_offset:               0.2
# ///
#------------------------
#   e         norm        nbkg        flat        fbkg        nder        nsec
  7600.07      -0.21276      -0.01276  -0.21276      -0.21276       0.0120768  -0.00050434
  7610.64      -0.0850602   0.11494      -0.0850602  -0.0850602   0.00674387  -0.000374295
  7624.56      -0.0476093   0.152391      -0.0476093  -0.0476093   0.00291065  -0.000204479
  7637.2      -0.00775638   0.192244      -0.00775638  -0.00775638   0.00131312  -0.000129832
  7649.7      -0.0145934   0.185407      -0.0145934  -0.0145934  -0.000353713   9.55004e-05
  7662.2      -0.0165988   0.183401      -0.0165988  -0.0165988   0.00370054   2.26417e-05
  7674.73       0.0780458   0.278046       0.0780458   0.0780458   0.0002131  -0.000283609
  7687.33      -0.0112432   0.188757      -0.0112432  -0.0112432  -0.00342712   6.76149e-06
  7700.01      -0.00858137   0.191419      -0.00858137  -0.00858137   0.00038401   0.000909106
  7700.39      -0.00622918   0.193771      -0.00622918  -0.00622918   0.00844309   0.007323
  7700.72      -0.00259522   0.197405      -0.00259522  -0.00259522   0.00557602  -0.0201048
  7701.07      -0.00242076   0.197579      -0.00242076  -0.00242076  -0.00528848  -0.00631766
  7701.43      -0.00637648   0.193624      -0.00637648  -0.00637648   0.00105889   0.015249
  7701.8      -0.00165095   0.198349      -0.00165095  -0.00165095   0.00579755  -0.00752772
  7702.15      -0.00219645   0.197804      -0.00219645  -0.00219645  -0.00436859  -0.0144649
  7702.52      -0.00478323   0.195217      -0.00478323  -0.00478323  -0.00457379   0.00475036
  7702.88      -0.00550787   0.194492      -0.00550787  -0.00550787  -0.000929327   0.00253741
  7703.24      -0.00545885   0.194541      -0.00545885  -0.00545885  -0.00272909   0.00444149
  7703.6      -0.00747555   0.192524      -0.00747555  -0.00747555   0.00227299   0.0163971
  7703.96      -0.00382457   0.196175      -0.00382457  -0.00382457   0.0090604   0.000997098
  7704.32      -0.000906758   0.199093      -0.000906758  -0.000906758   0.00299589  -0.0158989
  7704.69      -0.00164955   0.19835      -0.00164955  -0.00164955  -0.00248219  -0.00935396
  7705.02      -0.00263188   0.197368      -0.00263188  -0.00263188  -0.00350511   0.00422176
  7705.38      -0.0040821   0.195918      -0.0040821  -0.0040821   0.000447704   0.028512
  7705.75      -0.00230551   0.197694      -0.00230551  -0.00230551   0.0172802   0.0350883
  7706.11       0.0085497   0.20855       0.0085497   0.0085497   0.0260972   0.0164655
  7706.47       0.0165367   0.216537       0.0165367   0.0165367   0.0291682   0.00700066
  7706.83       0.0295217   0.229522       0.0295217   0.0295217   0.0311307  -0.00460135
  7707.2       0.0391065   0.239106       0.0391065   0.0391065   0.0258322  -0.01838
  7707.56       0.0482759   0.248276       0.0482759   0.0482759   0.0177869  -0.031234
  7707.91       0.0518952   0.251895       0.0518952   0.0518952   0.00337499  -0.0210886
  7708.28       0.050716   0.250716       0.050716   0.050716   0.00253978  -0.00266404
  7708.65       0.0537518   0.253752       0.0537518   0.0537518   0.00142758  -0.0140056
  7708.98       0.0517181   0.251718       0.0517181   0.0517181  -0.00729215   0.000520607
  7709.29       0.0490557   0.249056       0.0490557   0.0490557   0.00176285   0.0212167
  7709.6       0.0528005   0.252801       0.0528005   0.0528005   0.00573488  -0.0126495
  7709.9       0.0525712   0.252571       0.0525712   0.0525712  -0.00599131  -0.0286707
  7710.21       0.0491159   0.249116       0.0491159   0.0491159  -0.0118976  -0.000580352
  7710.51       0.0453017   0.245302       0.0453017   0.0453017  -0.0063459   0.0161285
  7710.82       0.0452322   0.245232       0.0452322   0.0452322  -0.00202701   0.0245615
  7711.11       0.0440977   0.244098       0.0440977   0.0440977   0.00824364   0.0119596
  7711.42       0.0501207   0.250121       0.0501207   0.0501207   0.00506504  -0.0236311
  7711.73       0.0472228   0.247223       0.0472228   0.0472228  -0.00633673  -0.00608125
  7712.03       0.0462362   0.246236       0.0462362   0.0462362   0.00133724   0.000295518
  7712.33       0.0480358   0.248036       0.0480358   0.0480358  -0.00615705  -0.00186047
  7712.64       0.0424497   0.24245       0.0424497   0.0424497   0.000193045   0.0401248
  7712.95       0.0481555   0.248156       0.0481555   0.0481555   0.0187203   0.0439139
  7713.23       0.0535134   0.253513       0.0535134   0.0535134   0.0261462   0.0474973
  7713.54       0.063451   0.263451       0.063451   0.063451   0.0465063   0.0625025
  7713.85       0.0822542   0.282254       0.0822542   0.0822542   0.0647727   0.0432569
  7714.16       0.103804       0.303804       0.103804       0.103804       0.0734553   0.00186713
  7714.47       0.127576       0.327576       0.127576       0.127576       0.0659247  -0.0428269
  7714.78       0.144414       0.344414       0.144414       0.144414       0.047074  -0.0381402
  7715.08       0.15615       0.35615       0.15615       0.15615       0.0427736   0.00388648
  7715.39       0.170463       0.370463       0.170463       0.170463       0.0494408  -0.00323115
  7715.67       0.185468       0.385468       0.185469       0.185469       0.0408575  -0.0423403
  7715.97       0.194406       0.394406       0.194406       0.194406       0.0246294  -0.0367115
  7716.14       0.19697       0.39697       0.19697       0.19697       0.0237133   0.0226457
  7716.26       0.201117       0.401117       0.201117       0.201117       0.0310382   0.0923035
  7716.37       0.204109       0.404109       0.204109       0.204109       0.0449431   0.176806
  7716.5       0.212083       0.412083       0.212083       0.212083       0.0741789   0.0733583
  7716.62       0.222876       0.422876       0.222876       0.222876       0.0635027  -0.0679965
  7716.73       0.226942       0.426942       0.226942       0.226942       0.0582677  -0.0755817
  7716.87       0.237269       0.437269       0.237269       0.237269       0.044834  -0.0528485
  7716.99       0.238375       0.438375       0.238375       0.238375       0.0447913   0.0580942
  7717.1       0.24775       0.44775       0.24775       0.24775       0.0584281  -0.080666
  7717.23       0.25269       0.45269       0.25269       0.25269       0.0250282   0.0330115
  7717.35       0.253982       0.453982       0.253982       0.253982       0.0666479   0.23561
  7717.46       0.267952       0.467952       0.267952       0.267952       0.0789829  -0.0941918
  7717.59       0.273096       0.473096       0.273096       0.273096       0.0438535   0.0302203
  7717.71       0.278828       0.478828       0.278828       0.278828       0.0864776   0.301425
  7717.84       0.294715       0.494715       0.294715       0.294715       0.11921       0.00157619
  7717.96       0.30863       0.50863       0.30863       0.30863       0.0868716  -0.176819
  7718.07       0.314869       0.514869       0.314869       0.314869       0.0781876   0.0647355
  7718.21       0.327864       0.527864       0.327864       0.327864       0.102797       0.064753
  7718.33       0.34098       0.54098       0.34098       0.34098       0.0946349  -0.155239
  7718.44       0.350104       0.550104       0.350104       0.350104       0.0663155  -0.0819141
  7718.57       0.357227       0.557227       0.357227       0.357227       0.074566   0.2045
  7718.69       0.368894       0.568894       0.368894       0.368894       0.11785       0.254715
  7718.81       0.384568       0.584568       0.384568       0.384568       0.13366      -0.0506387
  7718.94       0.401374       0.601374       0.401374       0.401374       0.105544      -0.0290045
  7719.06       0.41106       0.61106       0.41106       0.41106       0.12638       0.102235
  7719.17       0.430694       0.630694       0.430694       0.430694       0.129263      -0.00975475
  7719.3       0.44247       0.64247       0.44247       0.44247       0.124009       0.234999
  7719.42       0.461944       0.661944       0.461944       0.461944       0.188483       0.153446
  7719.53       0.486952       0.686952       0.486952       0.486952       0.160222      -0.282608
  7719.67       0.501359       0.701359       0.501359       0.501359       0.118961      -0.0622408
  7719.79       0.51705       0.71705       0.51705       0.51705       0.144476       0.169238
  7719.9       0.535311       0.735311       0.535311       0.535311       0.158732       0.208086
  7720.03       0.556098       0.756098       0.556098       0.556098       0.195665       0.256468
  7720.15       0.584814       0.784814       0.584814       0.584814       0.223619       0.0525508
  7720.27       0.608201       0.808201       0.608201       0.608201       0.207909      -0.223434
  7720.4       0.635336       0.835336       0.635336       0.635336       0.169324      -0.196897
  7720.52       0.650362       0.850363       0.650362       0.650362       0.158882       0.0113719
  7720.65       0.674897       0.874897       0.674897       0.674897       0.172156       0.177739
  7720.77       0.693401       0.893401       0.693401       0.693401       0.203317       0.28758
  7720.88       0.72227       0.92227       0.72227       0.72227       0.239162       0.000189348
  7721.01       0.752474       0.952474       0.752474       0.752474       0.203363      -0.241201
  7721.13       0.773924       0.973924       0.773924       0.773924       0.177897      -0.0334498
  7721.25       0.793924       0.993924       0.793924       0.793924       0.195569       0.193162
  7721.38       0.822034        1.02203       0.822034       0.822034       0.225415       0.240382
  7721.5       0.85118        1.05118       0.851118       0.851118       0.256626       0.13401
  7721.61       0.881828        2.25268       0.88194        2.05279       0.256639      -0.144399
  7721.74       0.913799        2.23542       0.914115        2.03574       0.221393      -0.047951
  7721.86       0.937177        2.22013       0.937675        2.02063       0.244651      -0.0600184
  7721.97       0.970069        2.20574       0.970741        2.00641       0.207589      -0.326624
  7722.1       0.987413        2.18918       0.988286        1.99005       0.165608       0.00215692
  7722.23        1.0118        2.17377        1.01286        1.97483       0.208133       0.166832
  7722.36        1.04028        2.15725        1.04154        1.95851       0.207983      -0.0884698
  7722.48        1.06442        2.14224        1.06587        1.9437       0.18575      -0.253773
  7722.59        1.08393        2.12822        1.08556        1.92985       0.148347      -0.355168
  7722.72        1.10077        2.11226        1.1026        1.91409       0.0987334  -0.136805
  7722.85        1.10891        2.09752        1.11093        1.89954       0.113735       0.326465
  7722.96        1.12738        2.08411        1.12957        1.8863       0.175126       0.270385
  7723.05        1.14481        2.07306        1.14715        1.8754       0.169164      -0.211453
  7723.21        1.17052        2.05398        1.17311        1.85657       0.121206      -0.169921
  7723.41        1.18784        2.03156        1.19072        1.83445       0.108842       0.0084308
  7723.6        1.21297        2.009        1.21616        1.81219       0.124494      -0.0188129
  7723.8        1.23689        1.98677        1.24038        1.79027       0.10143      -0.15806
  7724        1.25323        1.96454        1.25704        1.76834       0.0617439  -0.207228
  7724.2        1.26146        1.94286        1.26557        1.74697       0.018953  -0.143979
  7724.4        1.26074        1.92151        1.26516        1.72593       0.00472827  -0.0240458
  7724.59        1.26333        1.9007        1.26805        1.70542       0.00947893  -0.0270432
  7724.79        1.26446        1.8801        1.26949        1.68513      -0.00589972  -0.103123
  7725.01        1.26087        1.85758        1.26624        1.66294      -0.0334204  -0.0358012
  7725.72        1.23325        1.78672        1.23972        1.59319      -0.039338  -0.00662554
  7726.51        1.2019        1.71366        1.20959        1.52134      -0.0433521   1.30259e-05
  7727.3        1.1648        1.64436        1.17371        1.45328      -0.0393174   0.00504972
  7728.07        1.14061        1.58218        1.1507        1.39228      -0.0354796   0.0072879
  7728.83        1.11058        1.52418        1.12186        1.33546      -0.0281815   0.0165274
  7729.59        1.09757        1.47029        1.11003        1.28275      -0.0102422   0.0169067
  7730.35        1.09499        1.42048        1.10862        1.23411      -0.00243267   0.00492974
  7731.15        1.09379        1.37242        1.10866        1.18728      -0.00258138   0.00178763
  7731.91        1.09097        1.32992        1.10701        1.14597       0.000350673  -0.00394716
  7732.68        1.09433        1.29061        1.11156        1.10784      -0.00862842  -0.00609812
  7733.44        1.07776        1.25499        1.09617        1.0734      -0.00898555   0.00585137
  7734.21        1.08054        1.22212        1.10014        1.04173       0.000353423  -0.00204745
  7734.98        1.0783        1.19279        1.09908        1.01357      -0.0121284  -0.0108006
  7735.77        1.06161        1.16516        1.08363       0.987177      -0.0165063   0.00709772
  7736.54        1.0525        1.14158        1.0757       0.964787      -0.00103465   0.00746425
  7737.31        1.06002        1.1205        1.08441       0.944895      -0.0050561  -0.0122159
  7738.08        1.04472        1.10199        1.0703       0.927568      -0.0198348  -0.00832131
  7738.84        1.02957        1.08592        1.05634       0.912692      -0.0178293   0.0052375
  7739.62        1.0173        1.072        1.04526       0.899963      -0.0117796   0.00203799
  7740.39        1.01138        1.06021        1.04054       0.889364      -0.0146827  -0.00517477
  7741.16       0.994612        1.05039        1.02496       0.880742      -0.0197746  -0.00556753
  7741.95       0.980458        1.04226        1.01203       0.873833      -0.0233903  -0.000639676
  7744.45       0.917634        1.02755       0.953077       0.862989      -0.0218798   0.00138842
  7746.97       0.870687        1.02581       0.910024       0.865147      -0.0164246   0.00185283
  7749.45       0.835495        1.03214       0.878674       0.875316      -0.0126138   0.0011697
  7751.94       0.808047        1.04166       0.855065       0.888683      -0.0106159   0.00093649
  7754.45       0.782394        1.05095       0.833311       0.901869      -0.00792946   0.00199761
  7756.95       0.768288        1.05928       0.823063       0.914051      -0.000599829   0.00266193
  7759.43       0.77941        1.06672       0.838023       0.925337       0.00531366   0.001602
  7761.95       0.794846        1.07346       0.857353       0.935965       0.00740696   0.00118417
  7764.47       0.816726        1.0794       0.883133       0.945804       0.0112795   0.000666914
  7766.97       0.851447        1.08451       0.921716       0.954779       0.0107535  -4.08645e-05
  7769.46       0.87043        1.08888       0.944561       0.963014       0.0110754   5.06996e-06
  7771.99       0.907067        1.09258       0.985105       0.970613       0.010779  -0.00115489
  7774.49       0.924605        1.09554        1.00651       0.977443       0.00527094  -0.00171292
  7777       0.933475        1.09784        1.01926       0.983624       0.00219726  -0.000717206
  7780.56       0.937951        1.1        1.02925       0.991298       0.000914625  -0.000850084
  7784.15       0.940016        1.10092        1.03687       0.997774      -0.00388254  -0.000630574
  7787.69       0.910265        1.10068        1.0126        1.00302      -0.003582   0.000640661
  7791.28       0.914466        1.09934        1.02235        1.00723       0.000687292   0.000338932
  7794.86       0.915192        1.09698        1.02862        1.0104      -0.00115219  -0.000592231
  7798.44       0.906223        1.09367        1.02518        1.01262      -0.00354953  -0.000298453
  7802.02       0.889802        1.08948        1.01429        1.01396      -0.00328703   5.58877e-05
  7805.61       0.882629        1.08445        1.01268        1.0145      -0.00314837   0.000101686
  7809.2       0.867168        1.07869        1.00278        1.0143      -0.002556   0.000431856
  7812.81       0.864238        1.07224        1.00542        1.01343      -4.11664e-05  -2.68807e-05
  7816.38       0.866873        1.06527        1.01358        1.01198      -0.00274893  -0.000490673
  7819.99       0.844487        1.0577       0.996788        1.01      -0.00356665   3.97188e-05
  7823.6       0.841107        1.04968       0.998994        1.00757      -0.002462  -0.000107038
  7827.22       0.82669        1.04128       0.990173        1.00476      -0.00434043   4.35361e-05
  7830.81       0.809817        1.03264       0.978856        1.00168      -0.00214815   0.000737588
  7834.44       0.811191        1.0237       0.985835       0.998347       0.000981267  -8.31915e-05
  7838.06       0.816927        1.01462       0.997175       0.99487      -0.00275095  -0.000403305
  7841.69       0.791241        1.00545       0.977104       0.991314      -0.0019435   0.000818205
  7845.32       0.802818       0.996284       0.994296       0.987762       0.00318921   0.00141397