File: Dynamic XAS/Dynamic XAS Energy analyzed data/ESweep_0_5 Hz/Same Eo/Normalized Spectra/Ir0_5Hz_ReaddMean_VPhsCorrect_6_182_mV_.csv.nor
# XDI/1.0 Athena/0.9.26
# Element.edge:                  K
# Element.symbol:                Co
# Column.1:                      energy eV
# Column.2:                      norm
# Column.3:                      nbkg
# Column.4:                      flat
# Column.5:                      fbkg
# Column.6:                      nder
# Column.7:                      nsec
# Athena.e0:                     7721.54
# Athena.eshift:                 0
# Athena.rbkg:                   1.0
# Athena.importance:             1
# Athena.standard:               None
# Athena.bkg_kweight:            3
# Athena.edge_step:              1.19466
# Athena.fixed_step:             no
# Athena.pre_edge_range:         -82.964 -19.904
# Athena.pre_edge_line:          0.202576 + 0.000188284 * E
# Athena.normalization_range:    45 125.256
# Athena.post_edge_polynomial:   15.7041 - 0.00166456 * E + 0 * E^2 + 0 * E^3
# Athena.spline_range_energy:    0.000 125.180
# Athena.clamps:                 0 24
# Athena.spline_range_k:         0.000 5.732
# Athena.kweight:                2
# Athena.window:                 hanning
# Athena.phase_correction:       no
# Athena.k_range:                .4 5.35
# Athena.dk:                     .5
# Athena.r_range:                .4 5.1
# Athena.dr:                     .5
# Athena.window:                 hanning
# Athena.plot_multiplier:        1
# Athena.y_offset:               0.2
# ///
#------------------------
#   e         norm        nbkg        flat        fbkg        nder        nsec
  7600.07      -0.215375      -0.0153753  -0.215375      -0.215375       0.012264  -0.00051543
  7610.64      -0.0856956   0.114304      -0.0856956  -0.0856956   0.00681386  -0.000380408
  7624.56      -0.0485107   0.151489      -0.0485107  -0.0485107   0.00294821  -0.000206338
  7637.2      -0.00739414   0.192606      -0.00739414  -0.00739414   0.00133372  -0.000132518
  7649.7      -0.0149769   0.185023      -0.0149769  -0.0149769  -0.000383697   9.54675e-05
  7662.2      -0.0169862   0.183014      -0.0169862  -0.0169862   0.00372031   2.54729e-05
  7674.73       0.0781575   0.278157       0.0781575   0.0781575   0.000253992  -0.000285169
  7687.33      -0.0106028   0.189397      -0.0106028  -0.0106028  -0.00344656   4.11484e-06
  7700.01      -0.00896121   0.191039      -0.00896121  -0.00896121   0.000358003   0.000993665
  7700.39      -0.0059284   0.194072      -0.0059284  -0.0059284   0.00952773   0.00528649
  7700.72      -0.00220604   0.197794      -0.00220604  -0.00220604   0.00410612  -0.0226212
  7701.07      -0.00312391   0.196876      -0.00312391  -0.00312391  -0.00592256  -0.00269027
  7701.43      -0.00644068   0.193559      -0.00644068  -0.00644068   0.00218258   0.0170573
  7701.8      -0.00153718   0.198463      -0.00153718  -0.00153718   0.0064781  -0.00879626
  7702.15      -0.00176997   0.19823      -0.00176997  -0.00176997  -0.00415952  -0.0178167
  7702.52      -0.00451956   0.19548      -0.00451956  -0.00451956  -0.00629648   0.00188467
  7702.88      -0.00632862   0.193671      -0.00632862  -0.00632862  -0.00279502   0.00771829
  7703.24      -0.00655154   0.193448      -0.00655154  -0.00655154  -0.000685286   0.0092942
  7703.6      -0.00682271   0.193177      -0.00682271  -0.00682271   0.0039061   0.011775
  7703.96      -0.00374305   0.196257      -0.00374305  -0.00374305   0.00778093  -0.000430627
  7704.32      -0.00118154   0.198818      -0.00118154  -0.00118154   0.00359389  -0.0132496
  7704.69      -0.00113389   0.198866      -0.00113389  -0.00113389  -0.00183828  -0.0116103
  7705.02      -0.00245914   0.197541      -0.00245914  -0.00245914  -0.00447527   0.0033274
  7705.38      -0.00423972   0.19576      -0.00423972  -0.00423972   0.000470934   0.0280777
  7705.75      -0.00211583   0.197884      -0.00211583  -0.00211583   0.0159934   0.0319241
  7706.11       0.00745146   0.207451       0.00745146   0.00745146   0.0238075   0.0201017
  7706.47       0.0150732   0.215073       0.0150732   0.0150732   0.0305069   0.0123404
  7706.83       0.0293859   0.229386       0.0293859   0.0293859   0.0326802  -0.00708299
  7707.2       0.0387663   0.238766       0.0387663   0.0387663   0.0253717  -0.0211592
  7707.56       0.0478057   0.247806       0.0478057   0.0478057   0.0173187  -0.0295883
  7707.91       0.0512185   0.251218       0.0512185   0.0512185   0.00409769  -0.0190021
  7708.28       0.0507684   0.250768       0.0507684   0.0507684   0.00358018  -0.00560876
  7708.65       0.0538356   0.253836       0.0538356   0.0538356  -2.30781e-06  -0.0163511
  7708.98       0.0507668   0.250767       0.0507668   0.0507668  -0.00789833   0.00369906
  7709.29       0.048749   0.248749       0.048749   0.048749   0.00237989   0.0240892
  7709.6       0.052228   0.252228       0.052228   0.052228   0.00689245  -0.00992642
  7709.9       0.0529741   0.252974       0.0529741   0.0529741  -0.00370501  -0.0303172
  7710.21       0.0499494   0.249949       0.0499494   0.0499494  -0.0117526  -0.00952052
  7710.51       0.0457933   0.245793       0.0457933   0.0457933  -0.00952204   0.0124164
  7710.82       0.0441219   0.244122       0.0441219   0.0441219  -0.00415376   0.0307862
  7711.11       0.0433259   0.243326       0.0433259   0.0433259   0.00876494   0.020671
  7711.42       0.0493195   0.24932       0.0493195   0.0493195   0.00810415  -0.0238518
  7711.73       0.0483262   0.248326       0.0483262   0.0483262  -0.00595164  -0.0169596
  7712.03       0.0456712   0.245671       0.0456712   0.0456712  -0.00229208  -0.00143263
  7712.33       0.0469326   0.246933       0.0469326   0.0469326  -0.00682268   0.00952448
  7712.64       0.0414752   0.241475       0.0414752   0.0414752   0.00356547   0.0446267
  7712.95       0.0491432   0.249143       0.0491432   0.0491432   0.0208459   0.0377579
  7713.23       0.0537952   0.253795       0.0537952   0.0537952   0.0258804   0.0402105
  7713.54       0.0642832   0.264283       0.0642833   0.0642833   0.044369   0.0576943
  7713.85       0.0812152   0.281215       0.0812152   0.0812152   0.0615355   0.0443863
  7714.16       0.10262       0.30262       0.10262       0.10262       0.0720217   0.00367104
  7714.47       0.125653       0.325653       0.125653       0.125653       0.0638005  -0.0395565
  7714.78       0.141921       0.341921       0.141921       0.141921       0.0476549  -0.0348953
  7715.08       0.154579       0.354579       0.154579       0.154579       0.0426191   0.00205411
  7715.39       0.167876       0.367876       0.167876       0.167876       0.0489059  -0.00219149
  7715.67       0.18358       0.38358       0.18358       0.18358       0.0413195  -0.0389153
  7715.97       0.192089       0.392089       0.192089       0.192089       0.0261015  -0.0383707
  7716.14       0.19577       0.39577       0.19577       0.19577       0.0234004  -0.025701
  7716.26       0.198712       0.398712       0.198712       0.198712       0.0188281   0.0813455
  7716.37       0.2001       0.4001       0.2001       0.2001       0.0421099   0.264539
  7716.5       0.208986       0.408986       0.208986       0.208986       0.0833757   0.107372
  7716.62       0.221194       0.421194       0.221194       0.221194       0.0692749  -0.127963
  7716.73       0.225197       0.425197       0.225197       0.225197       0.0534323  -0.0873719
  7716.87       0.234392       0.434392       0.234392       0.234392       0.0476941  -0.0546206
  7716.99       0.237359       0.437359       0.237359       0.237359       0.0395041   0.0102131
  7717.1       0.243636       0.443636       0.243636       0.243636       0.0500839  -0.0073104
  7717.23       0.249629       0.449629       0.249629       0.249629       0.037713   0.0907587
  7717.35       0.253027       0.453027       0.253027       0.253027       0.0726829   0.169986
  7717.46       0.266274       0.466274       0.266274       0.266274       0.0766397  -0.142948
  7717.59       0.271573       0.471573       0.271573       0.271573       0.0380895   0.0272184
  7717.71       0.27572       0.47572       0.27572       0.27572       0.0833899   0.300089
  7717.84       0.292421       0.492421       0.292421       0.292421       0.113112       0.00615049
  7717.96       0.303998       0.503998       0.303998       0.303998       0.0849275  -0.130627
  7718.07       0.312124       0.512124       0.312124       0.312124       0.0828063   0.100794
  7718.21       0.324368       0.524368       0.324368       0.324368       0.109723       0.0465734
  7718.33       0.339994       0.539994       0.339994       0.339994       0.094636  -0.204534
  7718.44       0.346608       0.546608       0.346608       0.346608       0.0616573  -0.0975093
  7718.57       0.3551       0.5551       0.3551       0.3551       0.0707462   0.184815
  7718.69       0.364436       0.564436       0.364436       0.364436       0.108231       0.275853
  7718.81       0.380209       0.580209       0.380209       0.380209       0.134744      -0.020597
  7718.94       0.397178       0.597178       0.397178       0.397178       0.103226      -0.0230102
  7719.06       0.406119       0.606119       0.406119       0.406119       0.128968       0.120408
  7719.17       0.427099       0.627099       0.427099       0.427099       0.13116       0.000350689
  7719.3       0.437991       0.637991       0.437991       0.437991       0.129054       0.232923
  7719.42       0.459621       0.659621       0.459621       0.459621       0.189857       0.102456
  7719.53       0.482797       0.682797       0.482797       0.482797       0.153233      -0.277079
  7719.67       0.497316       0.697316       0.497316       0.497316       0.121695       0.0145923
  7719.79       0.513586       0.713586       0.513586       0.513586       0.156925       0.146754
  7719.9       0.534193       0.734193       0.534193       0.534193       0.156182       0.124583
  7720.03       0.552007       0.752007       0.552007       0.552007       0.187573       0.259521
  7720.15       0.581649       0.781649       0.581649       0.581649       0.221841       0.020486
  7720.27       0.603696       0.803696       0.603696       0.603696       0.192346      -0.20167
  7720.4       0.628389       0.828389       0.628389       0.628389       0.172835      -0.0995122
  7720.52       0.646732       0.846732       0.646732       0.646732       0.167567      -6.50592e-05
  7720.65       0.670114       0.870114       0.670114       0.670114       0.172819       0.188567
  7720.77       0.689936       0.889936       0.689936       0.689936       0.214709       0.278581
  7720.88       0.720141       0.920141       0.720141       0.720141       0.237729      -0.0708549
  7721.01       0.748655       0.948655       0.748655       0.748655       0.197208      -0.193994
  7721.13       0.770232       0.970232       0.770232       0.770232       0.188454      -0.0364629
  7721.25       0.792565       0.992565       0.792565       0.792565       0.188712       0.105418
  7721.38       0.816655        1.01665       0.816655       0.816655       0.214387       0.271964
  7721.5       0.847019        1.04702       0.846957       0.846957       0.257791       0.154382
  7721.61       0.87672        2.25639       0.876832        2.0565       0.250358      -0.0910397
  7721.74       0.908107        2.23905       0.908423        2.03937       0.235577       0.0429538
  7721.86       0.935614        2.2237       0.936114        2.02419       0.261096      -0.135597
  7721.97       0.968159        2.20923       0.968832        2.00991       0.20439      -0.436525
  7722.1       0.985077        2.19259       0.985951        1.99347       0.155457      -0.0135111
  7722.23        1.00733        2.17712        1.0084        1.97818       0.200985       0.237913
  7722.36        1.03613        2.16052        1.0374        1.96179       0.215887       0.00200062
  7722.48        1.06195        2.14544        1.06341        1.9469       0.201491      -0.290179
  7722.59        1.08348        2.13136        1.08511        1.93299       0.147695      -0.471401
  7722.72        1.09814        2.11532        1.09998        1.91716       0.0859982  -0.114324
  7722.85        1.10523        2.10052        1.10726        1.90254       0.118771       0.434229
  7722.96        1.12593        2.08705        1.12813        1.88925       0.187608       0.214987
  7723.05        1.14369        2.07594        1.14604        1.87829       0.162844      -0.250203
  7723.21        1.16746        2.05678        1.17005        1.85938       0.123806      -0.127773
  7723.41        1.18765        2.03425        1.19054        1.83715       0.117484       0.0102298
  7723.6        1.21328        2.01159        1.21647        1.81479       0.127796      -0.0445043
  7723.8        1.238        1.98926        1.2415        1.79276       0.0999495  -0.163573
  7724        1.25296        1.96693        1.25677        1.77074       0.0628573  -0.197394
  7724.2        1.26301        1.94515        1.26714        1.74927       0.0213866  -0.149573
  7724.4        1.26142        1.92371        1.26585        1.72814       0.00362621  -0.0210151
  7724.59        1.26444        1.9028        1.26918        1.70753       0.0131066  -0.0245068
  7724.79        1.26658        1.88211        1.27161        1.68715      -0.00600496  -0.109907
  7725.01        1.26195        1.85948        1.26732        1.66486      -0.0326148  -0.0363796
  7725.72        1.23611        1.7883        1.2426        1.59479      -0.0399835  -0.00833951
  7726.51        1.20201        1.71491        1.20971        1.52261      -0.0451158   0.000211486
  7727.3        1.16488        1.64531        1.17381        1.45424      -0.0396495   0.00599674
  7728.07        1.1402        1.58285        1.15032        1.39297      -0.0357669   0.00693713
  7728.83        1.11022        1.52459        1.12153        1.3359      -0.0290496   0.0159348
  7729.59        1.09584        1.47047        1.10833        1.28296      -0.0114344   0.017383
  7730.35        1.09281        1.42044        1.10648        1.23411      -0.00257525   0.00696529
  7731.15        1.09184        1.37217        1.10674        1.18707      -0.000610345   0.00256608
  7731.91        1.09186        1.3295        1.10794        1.14558       0.00142014  -0.0051005
  7732.68        1.09401        1.29002        1.11129        1.10729      -0.00842431  -0.00705329
  7733.44        1.07896        1.25426        1.09742        1.07271      -0.00937845   0.00470066
  7734.21        1.07962        1.22125        1.09927        1.04091      -0.00120879  -0.00152354
  7734.98        1.07711        1.1918        1.09794        1.01264      -0.0117171  -0.00934702
  7735.77        1.06132        1.16406        1.0834       0.986141      -0.0157995   0.00655851
  7736.54        1.05241        1.1404        1.07567       0.963665      -0.00146613   0.0069961
  7737.31        1.05908        1.11924        1.08353       0.943701      -0.00506747  -0.0120974
  7738.08        1.04461        1.10066        1.07026       0.926314      -0.0200841  -0.00825904
  7738.84        1.02825        1.08455        1.05508       0.911389      -0.0177451   0.00601967
  7739.62        1.01732        1.07059        1.04535       0.898621      -0.0108258   0.00237138
  7740.39        1.01153        1.05876        1.04076       0.887994      -0.0140837  -0.00668418
  7741.16       0.995561        1.04892        1.02599       0.879355      -0.0211529  -0.00658129
  7741.95       0.978449        1.04078        1.01011       0.872436      -0.0243768  -0.000167623
  7744.45       0.915337        1.02608       0.950872       0.861613      -0.0217045   0.00168792
  7746.97       0.869557        1.02441       0.908996       0.863852      -0.0159085   0.0018003
  7749.45       0.835778        1.03085       0.879069       0.874138      -0.0127012   0.000960663
  7751.94       0.806483        1.04049       0.853623       0.887633      -0.0111379   0.00099617
  7754.45       0.780066        1.04989       0.831115       0.900943      -0.00771837   0.00207276
  7756.95       0.767783        1.05832       0.8227       0.91324      -0.000745089   0.00265295
  7759.43       0.776359        1.06587       0.835124       0.924632       0.00548003   0.00171981
  7761.95       0.795172        1.07269       0.857841       0.935359       0.00785051   0.00106369
  7764.47       0.81591        1.07871       0.882489       0.94529       0.0108389   0.000662093
  7766.97       0.849562        1.0839       0.920013       0.954349       0.0111729   0.000157016
  7769.46       0.871708        1.08834       0.946032       0.96266       0.011623  -0.000126935
  7771.99       0.907933        1.09209       0.986173       0.970329       0.0105354  -0.00135384
  7774.49       0.924659        1.0951        1.00678       0.977222       0.00481863  -0.00168038
  7777       0.932074        1.09745        1.01808       0.98346       0.00211674  -0.000648471
  7780.56       0.937516        1.09967        1.02906       0.991204       0.000879822  -0.000830665
  7784.15       0.938366        1.10064        1.03547       0.997739      -0.00382418  -0.000574935
  7787.69       0.910246        1.10043        1.01284        1.00303      -0.00322004   0.000620543
  7791.28       0.915398        1.09911        1.02356        1.00728       0.000602152   0.000278784
  7794.86       0.914562        1.09676        1.02828        1.01048      -0.00122144  -0.000548396
  7798.44       0.90666        1.09346        1.02592        1.01272      -0.00332107  -0.000335984
  7802.02       0.890807        1.08926        1.01562        1.01407      -0.00362473  -9.84765e-06
  7805.61       0.880641        1.08422        1.01103        1.01461      -0.00339176   0.000173873
  7809.2       0.866423        1.07845        1.00238        1.01441      -0.00237476   0.00050329
  7812.81       0.863555        1.07198        1.00511        1.01353       0.000229412  -4.0006e-05
  7816.38       0.86807        1.06498        1.01516        1.01207      -0.00266189  -0.000563157
  7819.99       0.844429        1.05737       0.997125        1.01007      -0.00381687   2.02109e-05
  7823.6       0.840497        1.04932       0.998793        1.00762      -0.00251588  -7.85334e-05
  7827.22       0.826242        1.04088       0.990149        1.00478      -0.00438459   4.93714e-05
  7830.81       0.808888        1.0322       0.978365        1.00168      -0.00215996   0.000744169
  7834.44       0.810658        1.02322       0.985755       0.998319       0.000984589  -7.90725e-05
  7838.06       0.816023        1.0141       0.996738       0.994815      -0.00273292  -0.000394533
  7841.69       0.790839        1.00489       0.977183       0.991231      -0.00187657   0.000815089
  7845.32       0.802399       0.995679       0.994374       0.987653       0.00318463   0.00139427