File: Dynamic XAS Energy analyzed data/ESweep_0_5 Hz/Same Eo/Normalized Spectra/Ir0_5Hz_ReaddMean_VPhsCorrect_0_16_mV_.csv.nor
# XDI/1.0 Athena/0.9.26
# Element.edge:                  K
# Element.symbol:                Co
# Column.1:                      energy eV
# Column.2:                      norm
# Column.3:                      nbkg
# Column.4:                      flat
# Column.5:                      fbkg
# Column.6:                      nder
# Column.7:                      nsec
# Athena.e0:                     7721.54
# Athena.eshift:                 0
# Athena.rbkg:                   1.0
# Athena.importance:             1
# Athena.standard:               None
# Athena.bkg_kweight:            3
# Athena.edge_step:              1.19411
# Athena.fixed_step:             no
# Athena.pre_edge_range:         -82.964 -19.904
# Athena.pre_edge_line:          0.077387 + 0.000204578 * E
# Athena.normalization_range:    45 125.256
# Athena.post_edge_polynomial:   15.6379 - 0.00165598 * E + 0 * E^2 + 0 * E^3
# Athena.spline_range_energy:    0.000 125.180
# Athena.clamps:                 0 24
# Athena.spline_range_k:         0.000 5.732
# Athena.kweight:                2
# Athena.window:                 hanning
# Athena.phase_correction:       no
# Athena.k_range:                .4 5.35
# Athena.dk:                     .5
# Athena.r_range:                .4 5.1
# Athena.dr:                     .5
# Athena.window:                 hanning
# Athena.plot_multiplier:        1
# Athena.y_offset:               0.2
# ///
#------------------------
#   e         norm        nbkg        flat        fbkg        nder        nsec
  7600.07      -0.219981      -0.0199811  -0.219981      -0.219981       0.0130264  -0.000566769
  7610.64      -0.08224   0.11776      -0.08224  -0.08224   0.00703337  -0.000417047
  7624.56      -0.0477408   0.152259      -0.0477408  -0.0477408   0.00281332  -0.000215669
  7637.2      -0.00752114   0.192479      -0.00752114  -0.00752114   0.00130541  -0.000129039
  7649.7      -0.0149188   0.185081      -0.0149188  -0.0149188  -0.000431123   0.000100059
  7662.2      -0.0182988   0.181701      -0.0182988  -0.0182988   0.00380678   2.92497e-05
  7674.73       0.0803801   0.28038       0.0803801   0.0803801   0.000301115  -0.000292551
  7687.33      -0.0107312   0.189269      -0.0107312  -0.0107312  -0.00354562   7.49507e-07
  7700.01      -0.00924244   0.190758      -0.00924244  -0.00924244   0.00032006   0.00105823
  7700.39      -0.00655214   0.193448      -0.00655214  -0.00655214   0.0102717   0.00649631
  7700.72      -0.00195982   0.19804      -0.00195982  -0.00195982   0.00492594  -0.0241049
  7701.07      -0.00318772   0.196812      -0.00318772  -0.00318772  -0.00619195  -0.00379853
  7701.43      -0.00638706   0.193613      -0.00638706  -0.00638706   0.00221   0.0165634
  7701.8      -0.00158105   0.198419      -0.00158105  -0.00158105   0.00584962  -0.00916451
  7702.15      -0.00216948   0.197831      -0.00216948  -0.00216948  -0.00439762  -0.0166448
  7702.52      -0.00473414   0.195266      -0.00473414  -0.00473414  -0.00608471   0.00178589
  7702.88      -0.00657481   0.193425      -0.00657481  -0.00657481  -0.00310463   0.00875788
  7703.24      -0.0069912   0.193009      -0.00699121  -0.00699121   0.000282267   0.00735967
  7703.6      -0.0063713   0.193629      -0.0063713  -0.0063713   0.00220169   0.0110418
  7703.96      -0.00540819   0.194592      -0.00540819  -0.00540819   0.00822135   0.00469678
  7704.32      -0.000410814   0.199589      -0.000410814  -0.000410814   0.00560686  -0.0142372
  7704.69      -0.00133761   0.198662      -0.00133761  -0.00133761  -0.00211489  -0.0151207
  7705.02      -0.00188066   0.198119      -0.00188066  -0.00188066  -0.00490203   0.0024365
  7705.38      -0.00473962   0.19526      -0.00473962  -0.00473962  -0.000423957   0.0326407
  7705.75      -0.00218973   0.19781      -0.00218973  -0.00218973   0.018893   0.0352416
  7706.11       0.00907119   0.209071       0.00907119   0.00907119   0.0253377   0.0141796
  7706.47       0.0161041   0.216104       0.0161041   0.0161041   0.0291307   0.0125286
  7706.83       0.0300162   0.230016       0.0300162   0.0300162   0.0343458  -0.0036367
  7707.2       0.0410047   0.241005       0.0410047   0.0410047   0.0264941  -0.0268013
  7707.56       0.0492509   0.249251       0.0492509   0.0492509   0.014888  -0.0327196
  7707.91       0.0517092   0.251709       0.0517092   0.0517092   0.00296869  -0.01777
  7708.28       0.0513973   0.251397       0.0513973   0.0513973   0.00204029  -0.00873715
  7708.65       0.0532007   0.253201       0.0532007   0.0532007  -0.00341817  -0.012865
  7708.98       0.0489977   0.248998       0.0489977   0.0489977  -0.00699094   0.0140752
  7709.29       0.0486985   0.248698       0.0486985   0.0486985   0.00564624   0.0189138
  7709.6       0.0524645   0.252464       0.0524645   0.0524645   0.00462216  -0.0182083
  7709.9       0.0515319   0.251532       0.0515319   0.0515319  -0.00551542  -0.0282782
  7710.21       0.0490725   0.249073       0.0490725   0.0490725  -0.012769  -0.00253492
  7710.51       0.04373   0.24373       0.04373   0.04373  -0.00706426   0.022745
  7710.82       0.0447492   0.244749       0.0447492   0.0447492   0.00115098   0.0284617
  7711.11       0.0444137   0.244414       0.0444137   0.0444137   0.00984198   0.0128081
  7711.42       0.0505855   0.250585       0.0505855   0.0505855   0.00874621  -0.0228002
  7711.73       0.0498101   0.24981       0.0498101   0.0498101  -0.00422577  -0.016148
  7712.03       0.0479951   0.247995       0.0479951   0.0479951  -0.00115254  -5.54019e-05
  7712.33       0.0491094   0.249109       0.0491094   0.0491094  -0.00425946   0.00894267
  7712.64       0.0453755   0.245376       0.0453755   0.0453755   0.00434721   0.0370769
  7712.95       0.0518047   0.251805       0.0518047   0.0518047   0.0187282   0.0388327
  7713.23       0.0564439   0.256444       0.0564439   0.0564439   0.0272973   0.0464017
  7713.54       0.0677736   0.267774       0.0677736   0.0677736   0.0458732   0.0561092
  7713.85       0.0847936   0.284794       0.0847936   0.0847936   0.0619728   0.0493732
  7714.16       0.106383       0.306383       0.106383       0.106383       0.0766327   0.0140463
  7714.47       0.132076       0.332076       0.132076       0.132076       0.0706393  -0.0448512
  7714.78       0.149896       0.349896       0.149896       0.149896       0.0490044  -0.0490857
  7715.08       0.161822       0.361822       0.161822       0.161822       0.0408443   0.00457561
  7715.39       0.174771       0.374771       0.174771       0.174771       0.0517909   0.00949501
  7715.67       0.192534       0.392534       0.192534       0.192534       0.0464748  -0.0546575
  7715.97       0.202005       0.402005       0.202005       0.202005       0.0197616  -0.0600894
  7716.14       0.201762       0.401762       0.201762       0.201762       0.0184131   0.0743784
  7716.26       0.207216       0.407216       0.207216       0.207216       0.0408107   0.125816
  7716.37       0.211149       0.411149       0.211149       0.211149       0.0473508   0.144091
  7716.5       0.218769       0.418769       0.218769       0.218769       0.075969   0.10065
  7716.62       0.230369       0.430369       0.230369       0.230369       0.0728153  -0.0943868
  7716.73       0.235808       0.435808       0.235808       0.235808       0.0538824  -0.149975
  7716.87       0.243678       0.443678       0.243678       0.243678       0.0357714  -0.0444861
  7716.99       0.24493       0.44493       0.24493       0.24493       0.0425385   0.0815722
  7717.1       0.253632       0.453632       0.253632       0.253632       0.0548593  -0.0194484
  7717.23       0.25837       0.45837       0.25837       0.25837       0.0377736   0.0994103
  7717.35       0.263038       0.463038       0.263038       0.263038       0.0796125   0.170331
  7717.46       0.276602       0.476602       0.276602       0.276602       0.0767795  -0.104979
  7717.59       0.281618       0.481618       0.281618       0.281618       0.0542075   0.024044
  7717.71       0.290045       0.490045       0.290045       0.290045       0.0827424   0.185345
  7717.84       0.302304       0.502304       0.302304       0.302304       0.100544       0.0575067
  7717.96       0.315181       0.515181       0.315181       0.315181       0.0971191  -0.0552614
  7718.07       0.324835       0.524835       0.324835       0.324835       0.087723   0.00648301
  7718.21       0.336761       0.536761       0.336761       0.336761       0.0987139   0.0167335
  7718.33       0.349909       0.549909       0.349909       0.349909       0.0919733  -0.0354869
  7718.44       0.358375       0.558375       0.358375       0.358375       0.0903745  -0.032675
  7718.57       0.372051       0.572051       0.372051       0.372051       0.0839679   0.0547331
  7718.69       0.379535       0.579535       0.379535       0.379535       0.104167       0.16006
  7718.81       0.396217       0.596217       0.396217       0.396217       0.121102       0.0397733
  7718.94       0.408962       0.608962       0.408962       0.408962       0.113832       0.0838249
  7719.06       0.424789       0.624789       0.424789       0.424789       0.142142       0.0458707
  7719.17       0.441939       0.641939       0.441939       0.441939       0.124474      -0.0622643
  7719.3       0.455036       0.655036       0.455036       0.455036       0.127012       0.220927
  7719.42       0.473946       0.673946       0.473946       0.473946       0.180148       0.131241
  7719.53       0.497551       0.697551       0.497551       0.497551       0.157984      -0.19343
  7719.67       0.51281       0.71281       0.51281       0.51281       0.132564      -0.0501819
  7719.79       0.53109       0.73109       0.53109       0.53109       0.145288       0.158761
  7719.9       0.546953       0.746953       0.546953       0.546953       0.169873       0.241693
  7720.03       0.572879       0.772879       0.572879       0.572879       0.204745       0.127022
  7720.15       0.598753       0.798753       0.598753       0.598753       0.202009      -0.0729529
  7720.27       0.619947       0.819947       0.619947       0.619947       0.187747      -0.0837375
  7720.4       0.644376       0.844376       0.644376       0.644376       0.181661      -0.0984524
  7720.52       0.66518       0.86518       0.66518       0.66518       0.163232      -0.0379062
  7720.65       0.685021       0.885021       0.685021       0.685021       0.172222       0.175795
  7720.77       0.708236       0.908236       0.708236       0.708236       0.207181       0.199634
  7720.88       0.733294       0.933294       0.733294       0.733294       0.218737       0.0281723
  7721.01       0.762264       0.962264       0.762264       0.762264       0.214139      -0.164284
  7721.13       0.787685       0.987685       0.787685       0.787685       0.177009      -0.0719895
  7721.25       0.803507        1.00351       0.803507       0.803507       0.197366       0.256179
  7721.38       0.836237        1.03624       0.836237       0.836237       0.240029       0.208704
  7721.5       0.864474        1.06447       0.864412       0.864412       0.250376      -0.0403643
  7721.61       0.894575        2.23125       0.894687        2.03136       0.230624      -0.188072
  7721.74       0.920746        2.21431       0.921064        2.01463       0.204487       0.0927818
  7721.86       0.945697        2.19929       0.946198        1.99979       0.253819      -0.0302292
  7721.97       0.979125        2.18516       0.979801        1.98583       0.197534      -0.450745
  7722.1       0.9935        2.16889       0.994379        1.96977       0.144739       0.0323719
  7722.23        1.0156        2.15376        1.01667        1.95483       0.205692       0.263149
  7722.36        1.04575        2.13753        1.04702        1.93881       0.211579      -0.117894
  7722.48        1.06913        2.1228        1.07059        1.92426       0.175865      -0.298373
  7722.59        1.08707        2.10903        1.08871        1.91067       0.141461      -0.327205
  7722.72        1.10379        2.09335        1.10563        1.89519       0.0956995  -0.141234
  7722.85        1.11129        2.07888        1.11332        1.88091       0.105729       0.260297
  7722.96        1.12853        2.06571        1.13074        1.86792       0.156609       0.248976
  7723.05        1.14339        2.05485        1.14575        1.85721       0.156769      -0.155927
  7723.21        1.1685        2.03612        1.17111        1.83873       0.116848      -0.148244
  7723.41        1.18487        2.01409        1.18778        1.817       0.104142       0.0154982
  7723.6        1.20912        1.99194        1.21233        1.79515       0.122892      -0.0190822
  7723.8        1.23329        1.97011        1.23681        1.77363       0.096624  -0.165262
  7724        1.24748        1.94827        1.25131        1.75211       0.057283  -0.209783
  7724.2        1.25609        1.92699        1.26023        1.73113       0.0131305  -0.140708
  7724.4        1.25268        1.90602        1.25713        1.71047       0.00156278  -0.00843597
  7724.59        1.25671        1.88558        1.26146        1.69034       0.00980673  -0.039727
  7724.79        1.25653        1.86535        1.26159        1.67041      -0.0140499  -0.0964809
  7725.01        1.25086        1.84323        1.25626        1.64863      -0.0303293  -0.0262926
  7725.72        1.2282        1.77364        1.23472        1.58015      -0.0386072  -0.00791218
  7726.51        1.19299        1.70188        1.20073        1.50962      -0.0421897   0.0028276
  7727.3        1.16159        1.63383        1.17056        1.4428      -0.0341425   0.00449047
  7728.07        1.13976        1.57276        1.14993        1.38292      -0.035189   0.00383944
  7728.83        1.10782        1.51579        1.11918        1.32715      -0.0282758   0.0151982
  7729.59        1.09658        1.46286        1.10913        1.27541      -0.0119814   0.0162675
  7730.35        1.08957        1.41394        1.1033        1.22767      -0.00350042   0.00720373
  7731.15        1.09114        1.36673        1.10611        1.1817      -0.000786786   0.00100223
  7731.91        1.08835        1.32499        1.1045        1.14115      -0.00193995  -0.00535858
  7732.68        1.08817        1.28638        1.10553        1.10373      -0.00899613  -0.00406888
  7733.44        1.07457        1.25139        1.09312        1.06994      -0.00816941   0.00624102
  7734.21        1.07563        1.2191        1.09538        1.03885       0.000583838  -0.000587639
  7734.98        1.07547        1.19029        1.0964        1.01122      -0.00907144  -0.010048
  7735.77        1.06147        1.16315        1.08365       0.985327      -0.0151012   0.00446683
  7736.54        1.05187        1.13999        1.07524       0.963361      -0.00208978   0.00616737
  7737.31        1.05827        1.11928        1.08284       0.943849      -0.00564042  -0.0115338
  7738.08        1.04318        1.10109        1.06895       0.926856      -0.0198402  -0.00806731
  7738.84        1.02781        1.08531        1.05477       0.91227      -0.0180237   0.00524744
  7739.62        1.01546        1.07163        1.04363       0.899792      -0.0117697   0.00271053
  7740.39        1.00964        1.06004        1.03901       0.889407      -0.0138387  -0.0061306
  7741.16       0.994083        1.05039        1.02466       0.880964      -0.0212414  -0.0068442
  7741.95       0.976416        1.0424        1.00822       0.874203      -0.024543  -2.90751e-05
  7744.45       0.913312        1.02793       0.949012       0.863632      -0.0213371   0.0017322
  7746.97       0.869368        1.02621       0.908989       0.865833      -0.0158526   0.00180566
  7749.45       0.834034        1.03241       0.877525       0.875904      -0.012307   0.00109698
  7751.94       0.808251        1.04176       0.85561       0.88912      -0.010405   0.00097481
  7754.45       0.781988        1.05088       0.833273       0.902165      -0.00743104   0.00196381
  7756.95       0.770992        1.05906       0.826163       0.914227      -0.000558433   0.00255735
  7759.43       0.77921        1.06638       0.838246       0.925413       0.00529178   0.00161052
  7761.95       0.79744        1.073       0.860399       0.935956       0.00749095   0.00111071
  7764.47       0.816949        1.07884       0.883836       0.945726       0.0108875   0.000686713
  7766.97       0.852074        1.08387       0.922851       0.954649       0.0109369   7.9915e-05
  7769.46       0.871568        1.08818       0.946236       0.962844       0.0112866  -9.4545e-05
  7771.99       0.908755        1.09181       0.987357       0.970416       0.0104621  -0.0013568
  7774.49       0.92415        1.09473        1.00665       0.977231       0.00446736  -0.00165025
  7777       0.931137        1.097        1.01755       0.983405       0.00219434  -0.000608328
  7780.56       0.937479        1.09912        1.02944       0.991085       0.000772373  -0.000874214
  7784.15       0.936661        1.10003        1.03421       0.997581      -0.00405804  -0.000522182
  7787.69       0.908541        1.09978        1.01161        1.00285      -0.00295131   0.000657659
  7791.28       0.915609        1.09843        1.02428        1.0071       0.000633038   0.000197888
  7794.86       0.913079        1.09607        1.02732        1.01031      -0.00153265  -0.00056181
  7798.44       0.904645        1.09275        1.02446        1.01256      -0.00338615  -0.000238942
  7802.02       0.888858        1.08855        1.01425        1.01394      -0.0032418  -1.96513e-05
  7805.61       0.881375        1.0835        1.01237        1.0145      -0.00352721   9.63796e-05
  7809.2       0.863501        1.07771        1.00009        1.0143      -0.00254893   0.000566842
  7812.81       0.863035        1.07122        1.00524        1.01343       0.000551219  -2.83146e-05
  7816.38       0.867457        1.06418        1.01523        1.01195      -0.00275214  -0.000608933
  7819.99       0.843261        1.05651       0.996664        1.00991      -0.00382396   2.93049e-05
  7823.6       0.839832        1.04837       0.998861        1.0074      -0.00254044  -5.47989e-05
  7827.22       0.824897        1.03982       0.989563        1.00448      -0.0042201   7.12795e-05
  7830.81       0.80941        1.03099       0.979671        1.00125      -0.00202659   0.000675032
  7834.44       0.810275        1.02183       0.986182       0.997733       0.000650253  -5.41594e-05
  7838.06       0.814121        1.01247       0.995673       0.994024      -0.00241903  -0.00033055
  7841.69       0.792732        1.00298       0.979939       0.990186      -0.00174689   0.000663593
  7845.32       0.801439       0.993438       0.994302       0.986301       0.00239866   0.00114203