File: Dynamic XAS Energy analyzed data/ESweep_0_5 Hz/Same Eo/Normalized Spectra/Ir0_5Hz_ReaddMean_VPhsCorrect_26_-47_mV_.csv.nor
# XDI/1.0 Athena/0.9.26
# Element.edge:                  K
# Element.symbol:                Co
# Column.1:                      energy eV
# Column.2:                      norm
# Column.3:                      nbkg
# Column.4:                      flat
# Column.5:                      fbkg
# Column.6:                      nder
# Column.7:                      nsec
# Athena.e0:                     7721.54
# Athena.eshift:                 0
# Athena.rbkg:                   1.0
# Athena.importance:             1
# Athena.standard:               None
# Athena.bkg_kweight:            3
# Athena.edge_step:              1.19381
# Athena.fixed_step:             no
# Athena.pre_edge_range:         -82.964 -19.904
# Athena.pre_edge_line:          0.185611 + 0.000190478 * E
# Athena.normalization_range:    45 125.256
# Athena.post_edge_polynomial:   15.6156 - 0.00165322 * E + 0 * E^2 + 0 * E^3
# Athena.spline_range_energy:    0.000 125.180
# Athena.clamps:                 0 24
# Athena.spline_range_k:         0.000 5.732
# Athena.kweight:                2
# Athena.window:                 hanning
# Athena.phase_correction:       no
# Athena.k_range:                .4 5.35
# Athena.dk:                     .5
# Athena.r_range:                .4 5.1
# Athena.dr:                     .5
# Athena.window:                 hanning
# Athena.plot_multiplier:        1
# Athena.y_offset:               0.2
# ///
#------------------------
#   e         norm        nbkg        flat        fbkg        nder        nsec
  7600.07      -0.214182      -0.0141815  -0.214182      -0.214182       0.0120992  -0.000502736
  7610.64      -0.0862447   0.113755      -0.0862447  -0.0862447   0.00678326  -0.000372392
  7624.56      -0.0480663   0.151934      -0.0480663  -0.0480663   0.00297968  -0.000206118
  7637.2      -0.00710743   0.192893      -0.00710744  -0.00710744   0.00130897  -0.000132978
  7649.7      -0.0151548   0.184845      -0.0151548  -0.0151548  -0.000363783   9.45966e-05
  7662.2      -0.0162016   0.183798      -0.0162016  -0.0162016   0.00367379   2.28685e-05
  7674.73       0.076815   0.276815       0.076815   0.076815   0.000208708  -0.000281007
  7687.33      -0.0109564   0.189044      -0.0109564  -0.0109564  -0.00338847   8.88002e-06
  7700.01      -0.0088353   0.191165      -0.0088353  -0.0088353   0.000433168   0.000973634
  7700.39      -0.00530053   0.194699      -0.00530053  -0.00530053   0.00932427   0.00379596
  7700.72      -0.00222439   0.197776      -0.00222439  -0.00222439   0.0031245  -0.021885
  7701.07      -0.0031665   0.196833      -0.0031665  -0.0031665  -0.00562318  -0.00140059
  7701.43      -0.00624496   0.193755      -0.00624496  -0.00624496   0.00212308   0.0164498
  7701.8      -0.00162302   0.198377      -0.00162302  -0.00162302   0.00633584  -0.00819292
  7702.15      -0.00167682   0.198323      -0.00167682  -0.00167682  -0.00378401  -0.0181353
  7702.52      -0.00433616   0.195664      -0.00433616  -0.00433616  -0.00666718   0.00147035
  7702.88      -0.00650386   0.193496      -0.00650386  -0.00650386  -0.00271948   0.00704815
  7703.24      -0.00631322   0.193687      -0.00631322  -0.00631322  -0.00154317   0.00776711
  7703.6      -0.00761648   0.192384      -0.00761648  -0.00761648   0.0028806   0.0146312
  7703.96      -0.00424206   0.195758      -0.00424206  -0.00424206   0.00897666   0.000646465
  7704.32      -0.0011084   0.198892      -0.0011084  -0.0011084   0.00334929  -0.0145299
  7704.69      -0.00181048   0.19819      -0.00181048  -0.00181048  -0.00157204  -0.00993195
  7705.02      -0.00220098   0.197799      -0.00220098  -0.00220098  -0.00355342   0.0017249
  7705.38      -0.00427655   0.195723      -0.00427655  -0.00427655  -0.000374966   0.0269726
  7705.75      -0.00247433   0.197526      -0.00247433  -0.00247433   0.0161096   0.0328248
  7706.11       0.00749956   0.2075       0.00749956   0.00749956   0.02362   0.0185009
  7706.47       0.0145793   0.214579       0.0145793   0.0145793   0.0294673   0.0138962
  7706.83       0.0286865   0.228687       0.0286865   0.0286865   0.0336113  -0.00399817
  7707.2       0.0389475   0.238948       0.0389475   0.0389475   0.0265686  -0.0231679
  7707.56       0.0479753   0.247975       0.0479753   0.0479753   0.0167915  -0.0296223
  7707.91       0.0510206   0.251021       0.0510206   0.0510206   0.00527014  -0.0167994
  7708.28       0.0517856   0.251786       0.0517856   0.0517856   0.00464552  -0.00668669
  7708.65       0.0544165   0.254416       0.0544165   0.0544165   0.000382176  -0.0181956
  7708.98       0.0520539   0.252054       0.0520539   0.0520539  -0.00812781   0.00258182
  7709.29       0.0491822   0.249182       0.0491822   0.0491822   0.00204487   0.02577
  7709.6       0.0533094   0.253309       0.0533095   0.0533095   0.00769494  -0.0148375
  7709.9       0.0538992   0.253899       0.0538992   0.0538992  -0.00705054  -0.0355057
  7710.21       0.0489734   0.248973       0.0489734   0.0489734  -0.0141411  -0.00223999
  7710.51       0.045259   0.245259       0.045259   0.045259  -0.00841918   0.0162678
  7710.82       0.0438208   0.243821       0.0438208   0.0438208  -0.00418514   0.0241606
  7711.11       0.042773   0.242773       0.042773   0.042773   0.00593224   0.0144541
  7711.42       0.0473386   0.247339       0.0473386   0.0473386   0.00438616  -0.0178833
  7711.73       0.0454793   0.245479       0.0454793   0.0454793  -0.00510174  -0.00804253
  7712.03       0.0442113   0.244211       0.0442113   0.0442113  -0.000543911  -0.00299093
  7712.33       0.0451486   0.245149       0.0451486   0.0451486  -0.00692022   0.00361763
  7712.64       0.0399553   0.239955       0.0399553   0.0399553   0.00168093   0.0373251
  7712.95       0.0461907   0.246191       0.0461907   0.0461907   0.0162214   0.0383263
  7713.23       0.0495422   0.249542       0.0495422   0.0495422   0.0243318   0.0501784
  7713.54       0.0604248   0.260425       0.0604248   0.0604248   0.0455757   0.058947
  7713.85       0.077708   0.277708       0.077708   0.077708   0.060761   0.0499107
  7714.16       0.098279   0.298279       0.098279   0.098279   0.0766701   0.0135427
  7714.47       0.125013       0.325013       0.125013       0.125013       0.0691169  -0.0531422
  7714.78       0.140855       0.340855       0.140855       0.140855       0.0439345  -0.0449478
  7715.08       0.151682       0.351682       0.151682       0.151682       0.0418335   0.0111408
  7715.39       0.166332       0.366332       0.166332       0.166332       0.0507192  -0.000348751
  7715.67       0.181758       0.381758       0.181758       0.181758       0.0416267  -0.0527496
  7715.97       0.190725       0.390725       0.190725       0.190725       0.019808  -0.042796
  7716.14       0.191008       0.391008       0.191008       0.191008       0.021641   0.0279642
  7716.26       0.196849       0.396849       0.196849       0.196849       0.0277218   0.0595386
  7716.37       0.197384       0.397384       0.197384       0.197384       0.0353349   0.226298
  7716.5       0.205471       0.405471       0.205471       0.205471       0.0829386   0.177396
  7716.62       0.218368       0.418368       0.218368       0.218368       0.0802161  -0.129692
  7716.73       0.224242       0.424242       0.224242       0.224242       0.0525907  -0.238728
  7716.87       0.231358       0.431358       0.231358       0.231358       0.0212504  -0.079907
  7716.99       0.22966       0.42966       0.22966       0.22966       0.0322144   0.155719
  7717.1       0.238896       0.438896       0.238896       0.238896       0.0576887   0.0186297
  7717.23       0.243794       0.443794       0.243794       0.243794       0.0367787   0.0655302
  7717.35       0.248054       0.448054       0.248054       0.248054       0.0740058   0.128969
  7717.46       0.260741       0.460741       0.260741       0.260741       0.0663126  -0.129747
  7717.59       0.264102       0.464102       0.264102       0.264102       0.0426071   0.0551276
  7717.71       0.271308       0.471308       0.271308       0.271308       0.0799842   0.249473
  7717.84       0.284098       0.484098       0.284098       0.284098       0.104975       0.119193
  7717.96       0.297552       0.497552       0.297552       0.297552       0.109782      -0.0782364
  7718.07       0.309567       0.509567       0.309567       0.309567       0.0868246  -0.119257
  7718.21       0.318911       0.518911       0.318911       0.318911       0.0804451  -0.0378184
  7718.33       0.33       0.53       0.33       0.33       0.0772187   0.0130667
  7718.44       0.337057       0.537057       0.337057       0.337057       0.0835158   0.0503069
  7718.57       0.350462       0.550462       0.350462       0.350462       0.0895439   0.110334
  7718.69       0.359622       0.559622       0.359622       0.359622       0.11132       0.162316
  7718.81       0.376288       0.576288       0.376288       0.376288       0.127201      -0.0581577
  7718.94       0.390532       0.590532       0.390532       0.390532       0.0971875  -0.0170551
  7719.06       0.400682       0.600682       0.400682       0.400682       0.12292       0.146679
  7719.17       0.41905       0.61905       0.41905       0.41905       0.131217       0.0442703
  7719.3       0.432568       0.632568       0.432568       0.432568       0.133678       0.164366
  7719.42       0.452736       0.652736       0.452736       0.452736       0.172637       0.111284
  7719.53       0.47331       0.67331       0.47331       0.47331       0.159941      -0.106369
  7719.67       0.492082       0.692082       0.492082       0.492082       0.146471      -0.123977
  7719.79       0.510367       0.710367       0.510367       0.510367       0.128575       0.00961223
  7719.9       0.522297       0.722297       0.522297       0.522297       0.148729       0.335556
  7720.03       0.546954       0.746954       0.546954       0.546954       0.211122       0.249673
  7720.15       0.575711       0.775711       0.575711       0.575711       0.211897      -0.0782112
  7720.27       0.596326       0.796326       0.596326       0.596326       0.192899      -0.105544
  7720.4       0.622585       0.822585       0.622585       0.622585       0.186249      -0.1313
  7720.52       0.642702       0.842703       0.642702       0.642702       0.160205      -0.075554
  7720.65       0.662476       0.862476       0.662476       0.662476       0.167436       0.16732
  7720.77       0.684562       0.884562       0.684562       0.684562       0.202035       0.309051
  7720.88       0.709551       0.909551       0.709551       0.709551       0.239445       0.0778449
  7721.01       0.743705       0.943705       0.743705       0.743705       0.221263      -0.3152
  7721.13       0.765751       0.965751       0.765751       0.765751       0.159384      -0.139225
  7721.25       0.780841       0.980841       0.780841       0.780841       0.188823       0.340852
  7721.38       0.812202        1.0122       0.812202       0.812202       0.243234       0.308207
  7721.5       0.842623        1.04262       0.842561       0.842561       0.267108       0.00748672
  7721.61       0.874438        2.27123       0.874549        2.07134       0.244978      -0.19759
  7721.74       0.902397        2.25367       0.902712        2.05399       0.218896       0.0785038
  7721.86       0.929162        2.23812       0.929659        2.03862       0.264604      -0.0834745
  7721.97       0.963256        2.22348       0.963927        2.02415       0.199697      -0.447428
  7722.1       0.977489        2.20663       0.97836        2.0075       0.156327       0.0896075
  7722.23        1.00265        2.19095        1.00371        1.99201       0.222278       0.268788
  7722.36        1.03395        2.17415        1.03521        1.97541       0.224599      -0.153927
  7722.48        1.05947        2.15888        1.06092        1.96033       0.183334      -0.280641
  7722.59        1.07703        2.14462        1.07866        1.94625       0.158648      -0.26366
  7722.72        1.09834        2.12838        1.10017        1.93021       0.118738      -0.163828
  7722.85        1.10707        2.11339        1.10909        1.91541       0.1172       0.243086
  7722.96        1.12577        2.09975        1.12796        1.90194       0.17562       0.275237
  7723.05        1.14307        2.0885        1.14541        1.89084       0.173624      -0.170357
  7723.21        1.17004        2.0691        1.17263        1.87168       0.132179      -0.152254
  7723.41        1.19        2.04629        1.19288        1.84917       0.119573      -0.0082213
  7723.6        1.21668        2.02334        1.21986        1.82652       0.128973      -0.0428107
  7723.8        1.24081        2.00072        1.2443        1.80421       0.102706      -0.152598
  7724        1.25745        1.97811        1.26125        1.78191       0.0683912  -0.204183
  7724.2        1.26803        1.95606        1.27214        1.76017       0.0214411  -0.153109
  7724.4        1.26594        1.93435        1.27035        1.73876       0.00776014  -0.0174989
  7724.59        1.27109        1.91318        1.2758        1.71789       0.0145465  -0.0583054
  7724.79        1.27166        1.89222        1.27668        1.69724      -0.0151539  -0.111903
  7725.01        1.26479        1.86931        1.27014        1.67466      -0.0320053  -0.0274368
  7725.72        1.24176        1.79723        1.24822        1.60369      -0.0407799  -0.00979772
  7726.51        1.20366        1.72292        1.21133        1.53059      -0.0466921   0.00106824
  7727.3        1.16804        1.65244        1.17694        1.46134      -0.0390931   0.00530066
  7728.07        1.14271        1.5892        1.15279        1.39928      -0.0384283   0.00578363
  7728.83        1.10932        1.53022        1.12058        1.34148      -0.0302558   0.0193138
  7729.59        1.09651        1.47541        1.10895        1.28785      -0.00893617   0.01845
  7730.35        1.09571        1.42477        1.10932        1.23838      -0.00215639   0.00476255
  7731.15        1.09316        1.3759        1.108        1.19073      -0.00153516   0.00251765
  7731.91        1.09332        1.33269        1.10933        1.14871       0.00176359  -0.00406794
  7732.68        1.09586        1.29272        1.11306        1.10993      -0.00776725  -0.00720112
  7733.44        1.08143        1.25652        1.09981        1.0749      -0.00926132   0.00442781
  7734.21        1.08164        1.22311        1.10122        1.04268      -0.000970551  -0.00155
  7734.98        1.07994        1.1933        1.10069        1.01405      -0.0116406  -0.00946674
  7735.77        1.06347        1.16522        1.08546       0.987203      -0.0157481   0.00650567
  7736.54        1.05532        1.14127        1.07849       0.964435      -0.0014722   0.00661594
  7737.31        1.06122        1.11986        1.08557       0.94421      -0.00559929  -0.0125832
  7738.08        1.04671        1.10105        1.07225       0.926595      -0.0208377  -0.00784077
  7738.84        1.02923        1.08475        1.05595       0.911473      -0.0176349   0.00681932
  7739.62        1.01958        1.07062        1.0475       0.898536      -0.0103496   0.00187452
  7740.39        1.01325        1.05866        1.04236       0.887767      -0.0147406  -0.00688242
  7741.16       0.996809        1.04871        1.02711       0.879009      -0.0209829  -0.0061786
  7741.95       0.980432        1.04047        1.01196       0.871995      -0.0244039  -0.000212647
  7744.45       0.916496        1.02562       0.951881       0.861007      -0.0216827   0.00166913
  7746.97       0.87165        1.02397       0.910922       0.863244      -0.0160299   0.00165478
  7749.45       0.83633        1.03052       0.879439       0.873626      -0.0134072   0.000985476
  7751.94       0.80507        1.04031       0.852011       0.887252      -0.011136   0.00113217
  7754.45       0.780628        1.04985       0.831461       0.900682      -0.00774408   0.0020293
  7756.95       0.766241        1.0584       0.820926       0.913081      -0.000961138   0.00267444
  7759.43       0.775846        1.06604       0.834363       0.924558       0.00556126   0.0017368
  7761.95       0.794036        1.07295       0.85644       0.935356       0.00771938   0.00113855
  7764.47       0.814737        1.07905       0.881034       0.945344       0.0112973   0.000656491
  7766.97       0.850726        1.08429       0.92088       0.954447       0.0110137  -9.44663e-05
  7769.46       0.869739        1.08878       0.943748       0.96279       0.0108255   6.9301e-05
  7771.99       0.905092        1.09257       0.983001       0.97048       0.0113617  -0.00109072
  7774.49       0.926843        1.09561        1.00861       0.977384       0.00534357  -0.00183781
  7777       0.931863        1.09798        1.01751       0.983623       0.00215426  -0.000706647
  7780.56       0.939928        1.10021        1.03108       0.991358       0.0010514  -0.000866136
  7784.15       0.939383        1.10118        1.03607       0.99787      -0.00404034  -0.000582289
  7787.69       0.911116        1.10096        1.01328        1.00313      -0.00310091   0.000644592
  7791.28       0.917264        1.09963        1.02497        1.00734       0.000557532   0.000228809
  7794.86       0.915113        1.09726        1.02835        1.0105      -0.00146058  -0.00054445
  7798.44       0.906815        1.09394        1.02557        1.0127      -0.00333746  -0.000278343
  7802.02       0.89124        1.08973        1.01552        1.01401      -0.00345157   2.71132e-06
  7805.61       0.88204        1.08468        1.01188        1.01452      -0.003318   0.000137982
  7809.2       0.867387        1.07891        1.00277        1.01429      -0.00245961   0.000462235
  7812.81       0.864343        1.07245        1.0053        1.01341       7.77972e-06  -4.63326e-05
  7816.38       0.867443        1.06548        1.01391        1.01195      -0.00279214  -0.000504765
  7819.99       0.844281        1.05792       0.996332        1.00997      -0.00361896   5.58909e-05
  7823.6       0.841299        1.04994       0.998926        1.00757      -0.00238839  -9.61644e-05
  7827.22       0.827016        1.0416       0.99023        1.00481      -0.00431413   1.69207e-05
  7830.81       0.810199        1.03305       0.978959        1.00181      -0.00226641   0.000703941
  7834.44       0.810664        1.02423       0.985021       0.998583       0.000764802  -5.2511e-05
  7838.06       0.815741        1.0153       0.995691       0.995249      -0.0026469  -0.000325022
  7841.69       0.791468        1.00632       0.977025       0.991876      -0.00159226   0.000846962
  7845.32       0.804181       0.997387       0.995344       0.98855       0.00350204   0.00140339