File: Dynamic XAS Energy analyzed data/ESweep_0_5 Hz/Same Eo/Normalized Spectra/Ir0_5Hz_ReaddMean_VPhsCorrect_37_-250_mV_.csv.nor
# XDI/1.0 Athena/0.9.26
# Element.edge:                  K
# Element.symbol:                Co
# Column.1:                      energy eV
# Column.2:                      norm
# Column.3:                      nbkg
# Column.4:                      flat
# Column.5:                      fbkg
# Column.6:                      nder
# Column.7:                      nsec
# Athena.e0:                     7721.54
# Athena.eshift:                 0
# Athena.rbkg:                   1.0
# Athena.importance:             1
# Athena.standard:               None
# Athena.bkg_kweight:            3
# Athena.edge_step:              1.19258
# Athena.fixed_step:             no
# Athena.pre_edge_range:         -82.964 -19.904
# Athena.pre_edge_line:          -0.000159 + 0.000214679 * E
# Athena.normalization_range:    45 125.256
# Athena.post_edge_polynomial:   15.5531 - 0.00164514 * E + 0 * E^2 + 0 * E^3
# Athena.spline_range_energy:    0.000 125.180
# Athena.clamps:                 0 24
# Athena.spline_range_k:         0.000 5.732
# Athena.kweight:                2
# Athena.window:                 hanning
# Athena.phase_correction:       no
# Athena.k_range:                .4 5.35
# Athena.dk:                     .5
# Athena.r_range:                .4 5.1
# Athena.dr:                     .5
# Athena.window:                 hanning
# Athena.plot_multiplier:        1
# Athena.y_offset:               0.2
# ///
#------------------------
#   e         norm        nbkg        flat        fbkg        nder        nsec
  7600.07      -0.212418      -0.0124181  -0.212418      -0.212418       0.0121705  -0.000507915
  7610.64      -0.0837273   0.116273      -0.0837273  -0.0837273   0.0067998  -0.000380301
  7624.56      -0.0458979   0.154102      -0.0458979  -0.0458979   0.0028573  -0.000211718
  7637.2      -0.00784025   0.19216      -0.00784025  -0.00784025   0.00117677  -0.000125373
  7649.7      -0.0163103   0.18369      -0.0163103  -0.0163103  -0.000294956   0.000105756
  7662.2      -0.0152139   0.184786      -0.0152139  -0.0152139   0.00382056   1.86479e-05
  7674.73       0.0793335   0.279334       0.0793335   0.0793335   0.000171876  -0.000290407
  7687.33      -0.0108943   0.189106      -0.0108943  -0.0108943  -0.00347795   8.60036e-06
  7700.01      -0.00857868   0.191421      -0.00857868  -0.00857868   0.000389267   0.000953519
  7700.39      -0.00581162   0.194188      -0.00581162  -0.00581162   0.00897214   0.00478377
  7700.72      -0.00221744   0.197783      -0.00221744  -0.00221744   0.00378096  -0.0232929
  7701.07      -0.00322923   0.196771      -0.00322923  -0.00322923  -0.00693693  -0.00303967
  7701.43      -0.00717734   0.192823      -0.00717734  -0.00717734   0.0016076   0.0206659
  7701.8      -0.00206051   0.197939      -0.00206051  -0.00206051   0.00808718  -0.00574
  7702.15      -0.00134648   0.198654      -0.00134648  -0.00134648  -0.00253094  -0.0204687
  7702.52      -0.00387519   0.196125      -0.00387519  -0.00387519  -0.00658889  -0.00142878
  7702.88      -0.00611684   0.193883      -0.00611684  -0.00611684  -0.00356538   0.00772361
  7703.24      -0.00646722   0.193533      -0.00646722  -0.00646722  -0.000973822   0.00803796
  7703.6      -0.00681897   0.193181      -0.00681897  -0.00681897   0.00222999   0.012348
  7703.96      -0.00486386   0.195136      -0.00486386  -0.00486386   0.00790439   0.00466966
  7704.32      -0.00108828   0.198912      -0.00108828  -0.00108828   0.00561549  -0.0133813
  7704.69      -0.000787008   0.199213      -0.000787008  -0.000787008  -0.00181045  -0.0136331
  7705.02      -0.00234654   0.197653      -0.00234654  -0.00234654  -0.00385954   0.0016699
  7705.38      -0.00346553   0.196534      -0.00346553  -0.00346553  -0.000651536   0.0274888
  7705.75      -0.00282151   0.197178      -0.00282151  -0.00282151   0.0161798   0.0364721
  7706.11       0.00836192   0.208362       0.00836192   0.00836192   0.0260095   0.0187858
  7706.47       0.0159574   0.215957       0.0159574   0.0159574   0.0297432   0.00935106
  7706.83       0.0297473   0.229747       0.0297473   0.0297473   0.032733  -0.003568
  7707.2       0.0396888   0.239689       0.0396888   0.0396888   0.0271564  -0.0215278
  7707.56       0.0494628   0.249463       0.0494628   0.0494628   0.0171038  -0.0331868
  7707.91       0.0519864   0.251986       0.0519864   0.0519864   0.00329506  -0.021934
  7708.28       0.0518451   0.251845       0.0518451   0.0518451   0.00124553  -0.00838104
  7708.65       0.0528969   0.252897       0.0528969   0.0528969  -0.00283148  -0.0125571
  7708.98       0.0498574   0.249857       0.0498574   0.0498574  -0.00756956   0.0089505
  7709.29       0.0480221   0.248022       0.0480221   0.0480221   0.00293264   0.024027
  7709.6       0.0516581   0.251658       0.0516581   0.0516581   0.007183  -0.0110943
  7709.9       0.0524253   0.252425       0.0524253   0.0524253  -0.00386814  -0.0329553
  7710.21       0.0492792   0.249279       0.0492792   0.0492792  -0.0130845  -0.00636093
  7710.51       0.0444307   0.244431       0.0444307   0.0444307  -0.00775467   0.0200496
  7710.82       0.0445333   0.244533       0.0445333   0.0445333  -0.00081415   0.0318917
  7711.11       0.0439471   0.243947       0.0439471   0.0439471   0.011189   0.0173543
  7711.42       0.0511684   0.251168       0.0511684   0.0511684   0.00947696  -0.0226905
  7711.73       0.0497943   0.249794       0.0497943   0.0497943  -0.00281102  -0.0168924
  7712.03       0.0494452   0.249445       0.0494452   0.0494452  -0.00087809  -0.00620122
  7712.33       0.0492605   0.24926       0.0492605   0.0492605  -0.00658136   0.0126118
  7712.64       0.0453977   0.245398       0.0453977   0.0453977   0.00687818   0.0443759
  7712.95       0.0535249   0.253525       0.0535249   0.0535249   0.0209317   0.0352847
  7713.23       0.0577683   0.257768       0.0577683   0.0577683   0.0277314   0.0443765
  7713.54       0.0697478   0.269748       0.0697478   0.0697478   0.0468919   0.0609449
  7713.85       0.0867475   0.286748       0.0867475   0.0867475   0.0653954   0.0453257
  7714.16       0.110489       0.310489       0.110489       0.110489       0.0751299   0.00182684
  7714.47       0.133103       0.333103       0.133103       0.133103       0.0665225  -0.0389517
  7714.78       0.151467       0.351467       0.151467       0.151467       0.0511356  -0.047034
  7715.08       0.164142       0.364142       0.164142       0.164142       0.0379729  -0.00699908
  7715.39       0.174593       0.374593       0.174593       0.174593       0.0468732   0.0188766
  7715.67       0.191938       0.391938       0.191938       0.191938       0.0491668  -0.028978
  7715.97       0.203404       0.403404       0.203404       0.203404       0.0298921  -0.0727753
  7716.14       0.205897       0.405897       0.205897       0.205897       0.0151807  -0.00902693
  7716.26       0.2077       0.4077       0.2077       0.2077       0.0273374   0.186436
  7716.37       0.212185       0.412185       0.212185       0.212185       0.058061   0.177802
  7716.5       0.221867       0.421867       0.221867       0.221867       0.0707212   0.00509457
  7716.62       0.230077       0.430077       0.230077       0.230077       0.05935  -0.0700947
  7716.73       0.235755       0.435755       0.235755       0.235755       0.054319  -0.00357871
  7716.87       0.243494       0.443494       0.243494       0.243494       0.058466  -0.0446241
  7716.99       0.250664       0.450664       0.250664       0.250664       0.0429398  -0.0898232
  7717.1       0.253542       0.453542       0.253542       0.253542       0.0374474   0.0800001
  7717.23       0.259839       0.459839       0.259839       0.259839       0.0625398   0.215907
  7717.35       0.269115       0.469115       0.269115       0.269115       0.0912083  -0.00917452
  7717.46       0.280725       0.480725       0.280725       0.280725       0.0604389  -0.1931
  7717.59       0.283741       0.483741       0.283741       0.283741       0.0444782   0.155247
  7717.71       0.291756       0.491756       0.291756       0.291756       0.0989401   0.215622
  7717.84       0.308476       0.508476       0.308476       0.308476       0.0983837  -0.111779
  7717.96       0.316352       0.516352       0.316352       0.316352       0.0709953   0.0661335
  7718.07       0.324947       0.524947       0.324947       0.324947       0.113727       0.211119
  7718.21       0.344329       0.544329       0.344329       0.344329       0.122931      -0.168508
  7718.33       0.356171       0.556171       0.356171       0.356171       0.0709257  -0.213988
  7718.44       0.360996       0.560996       0.360996       0.360996       0.0726434   0.126699
  7718.57       0.373969       0.573969       0.373969       0.373969       0.101967       0.0723846
  7718.69       0.386692       0.586692       0.386692       0.386692       0.0908843  -0.0014206
  7718.81       0.395054       0.595054       0.395054       0.395054       0.101637       0.190185
  7718.94       0.41139       0.61139       0.41139       0.41139       0.137099       0.25858
  7719.06       0.429466       0.629466       0.429466       0.429466       0.166541      -0.0368643
  7719.17       0.450027       0.650027       0.450027       0.450027       0.128547      -0.261747
  7719.3       0.460703       0.660703       0.460703       0.460703       0.102936       0.138008
  7719.42       0.475967       0.675967       0.475967       0.475967       0.163325       0.204378
  7719.53       0.499247       0.699247       0.499247       0.499247       0.15117      -0.142629
  7719.67       0.513155       0.713155       0.513155       0.513155       0.128238       0.119013
  7719.79       0.531692       0.731692       0.531692       0.531692       0.18128       0.239757
  7719.9       0.555756       0.755756       0.555756       0.555756       0.184581      -0.0476426
  7720.03       0.577099       0.777099       0.577099       0.577099       0.16956       0.141441
  7720.15       0.598654       0.798654       0.598654       0.598654       0.220366       0.0926727
  7720.27       0.628444       0.828444       0.628444       0.628444       0.191152      -0.305855
  7720.4       0.645104       0.845104       0.645104       0.645104       0.146043      -0.0885692
  7720.52       0.664808       0.864808       0.664808       0.664808       0.169099       0.155765
  7720.65       0.68721       0.88721       0.68721       0.68721       0.184828       0.29061
  7720.77       0.711015       0.911015       0.711015       0.711015       0.241751       0.129616
  7720.88       0.743538       0.943538       0.743538       0.743538       0.215029      -0.242804
  7721.01       0.764128       0.964128       0.764128       0.764128       0.181779      -0.0354747
  7721.13       0.78971       0.98971       0.78971       0.78971       0.206018       0.0572703
  7721.25       0.81213        1.01213       0.81213       0.81213       0.195123       0.0538019
  7721.38       0.83771        1.03771       0.83771       0.83771       0.219253       0.245047
  7721.5       0.86782        1.06782       0.867758       0.867758       0.257365       0.0339378
  7721.61       0.897676        2.23808       0.897788        2.03819       0.227161      -0.16146
  7721.74       0.923247        2.22102       0.923566        2.02134       0.217968       0.0894256
  7721.86       0.952168        2.2059       0.95267        2.0064       0.249517      -0.0761887
  7721.97       0.980636        2.19167       0.981313        1.99234       0.200445      -0.433885
  7722.1        1.00068        2.17529        1.00156        1.97617       0.144517      -0.0342793
  7722.23        1.01705        2.16005        1.01812        1.96112       0.191807       0.2578
  7722.36        1.04939        2.14372        1.05067        1.94499       0.209998      -0.0812506
  7722.48        1.07018        2.12888        1.07165        1.93035       0.17125      -0.286394
  7722.59        1.08964        2.11502        1.09128        1.91666       0.142696      -0.316826
  7722.72        1.10514        2.09923        1.10699        1.90108       0.0936279  -0.155428
  7722.85        1.11333        2.08466        1.11536        1.8867       0.103373       0.276553
  7722.96        1.12933        2.0714        1.13155        1.87361       0.158341       0.238396
  7723.05        1.14579        2.06047        1.14814        1.86283       0.152244      -0.186143
  7723.21        1.16816        2.04162        1.17077        1.84422       0.110875      -0.136796
  7723.41        1.18515        2.01944        1.18806        1.82235       0.103681       0.0159285
  7723.6        1.20859        1.99713        1.21181        1.80035       0.117087      -0.0263324
  7723.8        1.23128        1.97516        1.2348        1.77868       0.0933062  -0.158252
  7724        1.24563        1.95318        1.24947        1.75701       0.0542609  -0.174727
  7724.2        1.25287        1.93175        1.25702        1.73589       0.023765  -0.109118
  7724.4        1.25505        1.91064        1.2595        1.71509       0.0110502  -0.0376685
  7724.59        1.25723        1.89006        1.26199        1.69482       0.00892356  -0.0522175
  7724.79        1.25855        1.8697        1.26362        1.67476      -0.00947127  -0.0964845
  7725.01        1.25329        1.84742        1.2587        1.65283      -0.031214  -0.0305429
  7725.72        1.2294        1.77737        1.23592        1.5839      -0.0379983  -0.00744077
  7726.51        1.19633        1.70514        1.20408        1.51289      -0.0423677   0.00130553
  7727.3        1.1625        1.63664        1.17149        1.44563      -0.0359369   0.00465664
  7728.07        1.1403        1.57518        1.15048        1.38535      -0.035108   0.00452118
  7728.83        1.10885        1.51784        1.12022        1.32921      -0.0290285   0.01618
  7729.59        1.09598        1.46458        1.10854        1.27714      -0.0104011   0.0158586
  7730.35        1.09301        1.41535        1.10676        1.22909      -0.00487587   0.00441424
  7731.15        1.0884        1.36785        1.10338        1.18284      -0.00354137   0.00351558
  7731.91        1.0875        1.32586        1.10367        1.14203       0.000597892  -0.0031924
  7732.68        1.08932        1.28701        1.10669        1.10438      -0.00843213  -0.0055194
  7733.44        1.07459        1.25182        1.09315        1.07038      -0.0078523   0.00554686
  7734.21        1.07726        1.21935        1.09703        1.03912       8.2299e-05  -0.00257329
  7734.98        1.07472        1.19038        1.09567        1.01133      -0.0118023  -0.00914048
  7735.77        1.05884        1.16309        1.08104       0.985288      -0.014186   0.00778945
  7736.54        1.05254        1.13981        1.07593       0.963203       0.000372605   0.00557055
  7737.31        1.05941        1.119        1.084       0.943591      -0.00564076  -0.0138845
  7738.08        1.04386        1.10073        1.06965       0.926516      -0.0209956  -0.00781271
  7738.84        1.02718        1.08488        1.05417       0.911863      -0.0176333   0.00670654
  7739.62        1.01674        1.07115        1.04493       0.899335      -0.010681   0.00134157
  7740.39        1.01069        1.05952        1.04008       0.888913      -0.0155619  -0.00739494
  7741.16       0.9927        1.04985        1.0233       0.880447      -0.0221061  -0.00508757
  7741.95       0.976117        1.04184        1.00795       0.873675      -0.0235188   0.000196863
  7744.45       0.915299        1.02741       0.95103       0.86314      -0.0214583   0.00139527
  7746.97       0.868461        1.0258       0.908117       0.865458      -0.0165187   0.00185647
  7749.45       0.832689        1.03216       0.876219       0.875686      -0.0121741   0.00133854
  7751.94       0.808004        1.04166       0.855405       0.889063      -0.00987154   0.000948784
  7754.45       0.783312        1.05092       0.834642       0.902248      -0.00742826   0.0018261
  7756.95       0.770759        1.0592       0.825979       0.914424      -0.000715497   0.00258301
  7759.43       0.779752        1.06661       0.838841       0.925698       0.0054222   0.0016573
  7761.95       0.797859        1.0733       0.860873       0.936309       0.00756768   0.00110132
  7764.47       0.817878        1.07918       0.884824       0.946127       0.0109707   0.000625555
  7766.97       0.85291        1.08424       0.92375       0.955078       0.0107067  -4.68439e-05
  7769.46       0.871347        1.08855       0.946081       0.963285       0.0107367   4.82511e-06
  7771.99       0.90683        1.09218       0.985501       0.970853       0.010731  -0.00120782
  7774.49       0.925281        1.09508        1.00785       0.977649       0.00466619  -0.00179305
  7777       0.930207        1.09731        1.01669       0.983794       0.00174775  -0.000591131
  7780.56       0.935897        1.09937        1.02794       0.991415       0.00107567  -0.000792276
  7784.15       0.937901        1.1002        1.03554       0.997835      -0.00391861  -0.000571089
  7787.69       0.907953        1.09986        1.01112        1.00302      -0.00299677   0.000673872
  7791.28       0.916525        1.09841        1.02529        1.00718       0.000888122   0.000189981
  7794.86       0.91432        1.09595        1.02866        1.01029      -0.00163479  -0.000610149
  7798.44       0.904829        1.09254        1.02475        1.01246      -0.00347689  -0.000277296
  7802.02       0.88945        1.08826        1.01495        1.01375      -0.00361829   3.97926e-05
  7805.61       0.878857        1.08314        1.00997        1.01425      -0.00319126   0.00017292
  7809.2       0.866508        1.0773        1.00322        1.01401      -0.00237517   0.000424147
  7812.81       0.861768        1.07078        1.0041        1.01311      -0.000139518  -4.72995e-05
  7816.38       0.865507        1.06374        1.01341        1.01164      -0.00271464  -0.000463982
  7819.99       0.842263        1.05611       0.995801        1.00965      -0.00347323   5.81238e-05
  7823.6       0.840416        1.04805       0.999585        1.00722      -0.00229475  -0.000139446
  7827.22       0.825674        1.03962       0.990486        1.00443      -0.00448129   2.92955e-05
  7830.81       0.808111        1.03097       0.978522        1.00138      -0.00208356   0.00074745
  7834.44       0.810641        1.02203       0.986704       0.998096       0.000911567  -7.82418e-05
  7838.06       0.814716        1.01297       0.996427       0.994683      -0.0026505  -0.000370531
  7841.69       0.79142        1.00384       0.978792       0.991209      -0.00177552   0.000759926
  7845.32       0.801826       0.994726       0.994859       0.987759       0.00286656   0.00127881